time_s,Ax,Ay,Az,Gx,Gy,Gz
0.0,-0.0089,0.2921,9.8036,-2.9947,5.4985,-0.2673
0.02,0.0501,0.2558,9.8987,3.5635,5.8912,0.8025
0.04,0.0733,0.1844,9.9736,5.0652,4.691,1.2403
0.06,0.2349,0.1523,10.0142,4.5718,5.4872,1.688
0.08,0.2752,0.2463,10.1292,2.4263,4.4215,0.8922
0.1,0.0791,0.1848,10.0941,7.3546,3.8237,1.5358
0.12,0.3892,0.1487,10.173,5.83,2.151,3.7732
0.14,0.3932,0.2156,10.2335,8.0359,0.1168,2.2775
0.16,0.3123,0.2084,10.1974,12.2413,-1.1335,1.7748
0.18,0.4061,0.246,10.2292,9.5505,1.2696,2.5034
0.2,0.2126,0.1094,10.2307,5.1112,-1.7523,2.4344
0.22,0.2708,0.1642,10.1773,12.5689,-1.7378,1.0379
0.24,0.2095,0.0491,10.1484,6.5294,-3.5382,1.7739
0.26,0.1455,0.0587,9.9504,5.051,-4.9208,0.7623
0.28,0.2401,0.0518,9.9884,6.9315,-2.9258,0.5432
0.3,0.1024,-0.0317,9.9472,6.5786,-3.0255,-1.0579
0.32,0.1696,-0.0168,9.9049,5.128,-5.7708,-2.7788
0.34,-0.0664,0.0659,9.9129,5.2391,-8.5033,-1.4727
0.36,-0.0755,-0.0765,9.9157,2.7275,-2.11,-3.6544
0.38,-0.2153,0.0146,9.9946,0.8088,-4.1323,-4.116
0.4,-0.2178,-0.1627,10.1233,0.3118,-0.2751,-2.7142
0.42,-0.1717,-0.1905,10.1249,-0.2874,-0.3641,-4.6348
0.44,-0.2366,-0.0979,10.2477,-0.7257,-2.0751,-3.2751
0.46,-0.4389,-0.1415,10.1879,0.7251,-2.1596,-2.0841
0.48,-0.4749,-0.1954,10.2224,-2.7529,1.8859,-1.97
0.5,-0.4361,-0.161,10.2321,-4.3972,-0.3692,-0.21
0.52,-0.324,-0.1615,10.252,-5.0123,2.053,1.4643
0.54,-0.2834,-0.2343,10.1618,-3.9659,2.6824,0.523
0.56,-0.1678,-0.2584,10.0248,-6.8666,3.6361,0.0875
0.58,-0.1444,-0.2001,10.0049,-6.7837,3.6611,-0.1332
0.6,-0.1205,-0.246,9.9519,-6.941,5.2028,1.3539
0.62,-0.0614,-0.1868,9.8812,-7.1999,4.8225,4.6749
0.64,-0.1757,-0.2081,9.8252,-7.9456,7.8378,2.7478
0.66,0.2203,-0.2761,9.8745,-8.3243,3.9294,3.0177
0.68,0.0847,-0.2348,9.8274,-2.7586,4.5088,4.7376
0.7,0.0889,-0.2245,10.1619,-7.7615,2.1317,2.3261
0.72,0.2631,-0.1933,10.132,-5.6498,1.4225,2.1606
0.74,0.3719,-0.1975,10.0238,-4.1962,5.231,4.3053
0.76,0.3548,-0.1954,10.1022,-4.7037,2.3943,2.1475
0.78,0.3819,-0.2291,10.1358,-3.3915,-0.3084,1.6646
0.8,0.1634,-0.205,10.2307,2.4336,0.5836,1.3442
0.82,0.3164,-0.2125,10.1743,3.6843,0.9997,0.1337
0.84,0.6016,-0.1511,10.224,2.4698,-1.7743,1.2848
0.86,0.4299,-0.213,10.1436,3.8917,-1.1625,-3.0018
0.88,0.0916,-0.222,10.1174,3.9362,-2.6276,-2.9558
0.9,0.1266,-0.2067,10.0831,5.8906,-2.3461,-1.8103
0.92,0.1533,0.0188,9.9958,4.713,-5.1628,-3.4605
0.94,-0.067,-0.029,9.944,6.0493,-5.8347,-2.6235
0.96,0.1774,-0.012,9.8303,6.1674,-5.0719,-4.2181
0.98,-0.0378,0.0136,9.934,9.637,-3.4332,-3.465
1.0,-0.0409,-0.0343,9.9336,8.801,-5.964,-0.403
1.02,-0.1123,-0.0563,10.0178,7.1709,-4.4618,-1.4574
1.04,-0.1837,-0.0412,9.9977,9.3613,-1.9942,0.563
1.06,-0.1199,-0.0197,10.1504,3.6259,-0.8598,-0.4316
1.08,-0.3948,0.2458,10.189,3.1395,-2.0511,-0.7239
1.1,-0.3225,0.1177,10.2574,3.3721,-1.1329,2.5132
1.12,-0.413,0.1772,10.2165,3.9868,0.3055,1.4501
1.14,-0.4249,0.2877,10.2489,4.0505,-0.6537,1.1498
1.16,-0.2403,0.189,10.2201,2.929,2.1823,2.295
1.18,-0.2543,0.2007,10.212,3.4766,1.9919,1.898
1.2,-0.3555,0.1791,10.0811,2.6462,2.9248,4.5259
1.22,-0.0523,0.2348,10.0007,-1.0876,3.5973,1.506
1.24,-0.2002,0.2581,9.9929,-3.093,3.1486,4.6583
1.26,-0.1317,0.1965,9.9273,-0.8416,3.6754,3.0757
1.28,0.005,0.2942,9.9409,-4.9792,6.6409,1.3834
1.3,-0.0173,0.3217,9.8676,-4.9088,3.2086,2.2029
1.32,0.0311,0.1928,9.8708,-5.3368,1.6808,1.3785
1.34,0.1595,0.2092,10.0283,-5.3835,3.6372,-0.3306
1.36,0.2599,0.147,10.0268,-8.4864,4.1652,-0.1462
1.38,0.2581,0.2975,10.1131,-8.2986,1.6056,-0.3129
1.4,0.3388,0.3058,10.1116,-7.8758,2.567,-1.744
1.42,0.3277,0.1031,10.2248,-6.6917,3.4843,0.0609
1.44,0.3193,0.1891,10.2046,-3.9911,-1.7418,-2.1171
1.46,0.2322,0.0199,10.1089,-10.3271,1.493,-3.7451
1.48,0.3237,0.0869,10.2312,-9.2738,0.9045,-3.9886
1.5,0.2598,0.1445,10.1781,-3.5569,-1.8126,-4.1605
1.52,0.2432,0.0818,10.1755,-4.8212,-3.0188,-1.881
1.54,0.2021,0.086,10.0983,-1.5807,-3.7275,-2.751
1.56,0.1078,0.1125,9.9995,-2.8864,-7.0378,-0.8772
1.58,0.0249,0.0012,10.0131,-5.0936,-4.7533,-1.2627
1.6,-0.0135,0.1044,9.9609,-5.1606,-7.0826,0.1268
1.62,-0.1053,-0.0237,9.8177,1.403,-5.3349,0.1061
1.64,-0.1306,0.053,9.8635,1.9349,-5.6708,0.8088
1.66,-0.1468,-0.0583,9.9117,4.0542,-2.5017,1.5995
1.68,-0.1347,-0.0218,10.0772,4.215,-3.8505,2.801
1.7,-0.2404,-0.1534,10.0922,0.8915,-3.5674,2.8265
1.72,-0.1904,-0.1078,10.187,5.6153,-4.35,1.3478
1.74,-0.3994,-0.2197,10.2095,6.0141,-1.1101,3.0299
1.76,-0.2588,-0.0937,10.1689,6.5392,-1.8418,1.3729
1.78,-0.2959,-0.104,10.2096,6.5896,1.5559,0.5256
1.8,-0.3303,-0.1832,10.1751,10.6653,2.3408,2.3309
1.82,-0.333,-0.2297,10.1571,5.3825,3.8866,3.2017
1.84,-0.2316,-0.2848,10.2517,11.8837,2.9626,0.734
1.86,-0.3231,-0.2046,10.0543,7.5891,5.0767,-0.4925
1.88,-0.0421,-0.1442,9.9796,4.3804,3.6528,-0.6954
1.9,-0.1648,-0.3993,9.9628,10.1903,2.8842,-0.634
1.92,-0.1987,-0.2101,9.8896,9.6848,5.1796,-1.4103
1.94,0.0317,-0.2803,9.7571,5.4864,4.7346,-1.493
1.96,0.0854,-0.2798,9.8943,7.3199,3.2754,-0.4537
1.98,0.1015,-0.2921,10.0696,3.0241,6.7477,-1.7871
2.0,0.0475,-0.2335,9.9917,-1.1652,1.6136,-2.7755
2.02,0.2834,-0.2096,10.0646,-1.3109,2.2098,-3.5508
2.04,0.1989,-0.2354,10.1306,-2.7448,2.6225,-3.7123
2.06,0.316,-0.1808,10.1804,-1.2247,-0.3384,-3.1279
2.08,0.3614,-0.1588,10.1178,-3.0146,3.0381,-2.5766
2.1,0.3419,-0.1545,10.2218,-3.0677,0.3799,-1.7651
2.12,0.284,-0.1742,10.2688,-5.8031,-0.949,-1.8252
2.14,0.3937,-0.1962,10.2335,-8.1168,-3.2242,-0.472
2.16,0.3128,-0.1067,10.2087,-7.766,-1.8529,-0.8954
2.18,0.3635,-0.065,10.1371,-7.0966,-4.4812,0.3787
2.2,0.2534,-0.0816,10.0599,-10.5438,-3.6928,0.6676
2.22,0.0691,-0.0664,9.8952,-6.5908,-3.1994,1.8863
2.24,0.013,-0.09,9.9081,-12.8073,-4.5517,3.0797
2.26,0.0007,-0.0388,9.8484,-7.0391,-3.3453,2.779
2.28,-0.0973,-0.0126,9.8672,-4.2225,-5.4441,1.9045
2.3,-0.1779,-0.0866,9.9502,-9.4759,-6.6049,1.018
2.32,-0.2598,0.097,9.9392,-9.5086,-4.0999,2.5283
2.34,-0.1916,0.1304,10.068,-7.7165,-4.0019,3.0905
2.36,-0.32,0.0221,10.1776,-4.94,-3.7358,2.1872
2.38,-0.2279,0.1455,10.1481,-1.6351,0.9099,3.023
2.4,-0.2819,0.0824,10.3813,-4.2144,-1.9703,0.3111
2.42,-0.2184,0.1936,10.1369,-0.056,0.3587,0.0137
2.44,-0.4458,0.142,10.1861,0.6943,-0.2732,0.3707
2.46,-0.4108,0.097,10.1557,4.5712,0.5962,1.2993
2.48,-0.2696,0.1445,10.1213,3.5396,0.5841,0.7122
2.5,-0.3507,0.2666,10.1932,3.9406,1.6633,-2.4666
2.52,-0.1947,0.2877,10.0685,2.3648,3.9087,-3.2798
2.54,-0.3423,0.2004,9.93,7.221,7.3054,-1.02
2.56,-0.1511,0.219,9.9648,8.9067,4.1403,-3.1385
2.58,0.1376,0.2432,9.8303,7.5977,5.8385,-3.973
2.6,0.0089,0.1798,9.829,11.5086,6.0956,-2.8403
2.62,0.0209,0.2289,9.9717,6.842,6.9859,-3.7695
2.64,0.1354,0.3477,9.8909,10.3614,1.68,-2.0049
2.66,0.202,0.2858,9.8989,3.9763,3.0877,-1.2936
2.68,0.1934,0.2141,10.0534,6.649,1.9986,-0.4304
2.7,0.3505,0.3022,10.1246,6.2761,2.5498,-0.2768
2.72,0.3276,0.1093,10.2077,4.3762,0.1593,-0.8786
2.74,0.4399,0.1795,10.2641,5.8965,-1.9036,0.2791
2.76,0.4099,0.1252,10.1547,4.0098,-0.5818,0.9306
2.78,0.3124,0.1239,10.0673,4.2857,-2.4893,3.7219
2.8,0.223,0.038,10.2293,-1.0568,-3.1346,3.3594
2.82,0.2533,0.0123,10.139,0.5068,-1.081,3.5463
2.84,0.4767,-0.0093,10.0762,-2.4773,-1.9883,3.8156
2.86,0.2396,0.0198,9.9776,-5.6344,-1.7303,3.3766
2.88,0.0971,0.0988,9.9823,-0.8178,-7.1429,1.8745
2.9,0.0679,0.04,9.9175,-5.9124,-4.7532,4.3741
2.92,0.0399,0.0467,9.8267,-3.393,-2.2891,1.7388
2.94,0.0153,-0.0822,9.9339,-4.0345,-5.9869,2.1057
2.96,-0.2006,-0.1019,9.9775,-2.7533,-4.0766,1.2644
2.98,-0.2636,-0.0723,9.9856,-8.3748,-2.7981,-0.4065
3.0,-0.1398,-0.1118,10.0926,-5.1207,-4.3838,-2.5647
3.02,-0.193,-0.0965,10.0413,-7.8421,-3.2479,0.0795
3.04,-0.3855,-0.1768,10.1384,-10.1058,-2.8252,-3.632
3.06,-0.4275,-0.2576,10.1294,-10.9914,-1.6219,-3.2919
3.08,-0.448,-0.1503,10.2075,-8.4212,-0.5704,-1.2869
3.1,-0.3224,-0.1665,10.0711,-8.3683,-2.1698,-3.4223
3.12,-0.2907,-0.2497,10.2023,-8.4402,2.8707,-4.5043
3.14,-0.3084,-0.1963,10.1653,-5.8295,5.7616,-3.1607
3.16,-0.2797,-0.3973,10.1769,-5.3593,1.8261,-1.0728
3.18,-0.0918,-0.2332,9.9561,-2.7186,3.2615,-3.0828
3.2,-0.047,-0.3734,9.9874,-1.4876,7.7163,-1.002
3.22,-0.2301,-0.2991,9.888,-0.4872,6.3832,-2.6305
3.24,-0.0243,-0.1918,9.8896,3.7606,4.4146,1.1193
3.26,0.2065,-0.1769,9.9256,2.9301,3.7155,-0.7342
3.28,0.213,-0.266,9.9621,1.3223,4.0276,1.5987
3.3,0.1124,-0.2352,10.0442,3.4707,3.0451,2.7319
3.32,0.3964,-0.2672,10.1536,6.4625,-0.4319,1.6584
3.34,0.239,-0.1739,10.1507,6.5788,3.7568,1.8645
3.36,0.2625,-0.2818,10.1698,6.2026,2.2085,2.2309
3.38,0.415,-0.1391,10.2788,8.5194,1.3061,3.6659
3.4,0.3988,-0.217,10.2744,11.0192,3.0308,2.9026
3.42,0.3702,-0.1351,10.2033,9.124,-1.0813,2.3928
3.44,0.4664,-0.1309,10.1856,9.7632,-1.6052,2.4579
3.46,0.2898,-0.1933,10.1455,5.647,-2.378,0.4477
3.48,0.3264,-0.0533,10.1132,7.4517,-2.8302,-0.9609
3.5,0.1139,-0.0845,10.0577,7.0405,-5.5935,0.4584
3.52,0.1064,-0.1162,9.9896,6.1537,-2.7705,0.2939
3.54,0.1372,-0.0089,9.8574,3.9187,-7.0794,1.8307
3.56,-0.0751,-0.0166,9.8048,4.3051,-5.8735,-3.5367
3.58,-0.1362,-0.0632,9.8681,2.4591,-5.9655,-1.9826
3.6,-0.1685,0.1002,9.93,3.1462,-6.6749,-1.9532
3.62,-0.2153,0.0924,10.0355,1.1525,-3.9372,-3.2661
3.64,-0.1293,0.1469,10.1049,-2.0934,-5.3289,-3.6601
3.66,-0.3018,0.1398,10.0876,1.3822,-2.953,-4.9629
3.68,-0.3548,-0.0211,10.1345,-3.2858,-3.0416,-3.0701
3.7,-0.3711,0.1182,10.2732,-0.9207,-2.9266,-1.1376
3.72,-0.4792,0.1233,10.2857,-8.9121,0.606,-3.1627
3.74,-0.358,0.1781,10.2908,-7.0301,0.6076,-0.697
3.76,-0.3505,0.1546,10.1846,-6.0679,2.9778,-1.6104
3.78,-0.3378,0.2363,10.1466,-7.3211,2.5049,-0.6705
3.8,-0.326,0.2544,10.0548,-5.1485,3.6401,-0.56
3.82,-0.1898,0.2469,10.0909,-5.5105,3.424,0.6614
3.84,-0.2033,0.1846,9.9496,-7.42,4.507,1.4566
3.86,-0.1505,0.2687,9.8894,-10.0382,4.5988,2.1572
3.88,-0.1102,0.2995,9.8804,-7.6537,5.1842,3.2921
3.9,0.0407,0.303,9.9421,-7.1662,5.6222,3.8323
3.92,0.0822,0.1792,9.9802,-9.8804,7.4332,3.8637
3.94,0.1863,0.2449,10.0934,-7.889,2.6197,2.2682
3.96,0.206,0.1742,10.0771,-4.8342,2.5857,4.1878
3.98,0.1627,0.1485,10.142,-4.5079,3.7368,1.5448
4.0,0.2282,0.1748,10.1311,-1.9315,1.5773,2.3875
4.02,0.3831,0.2624,10.2391,-0.2296,2.553,0.484
4.04,0.3276,0.0747,10.223,-1.9195,1.049,0.8489
4.06,0.2399,0.1065,10.1904,-0.3671,-0.2711,-1.5307
4.08,0.3383,0.0472,10.0846,3.3255,-3.4283,-1.6116
4.1,0.195,0.0438,10.1425,2.2505,-0.89,-1.2219
4.12,0.2498,0.1524,10.1752,4.9981,-3.7783,-1.1824
4.14,0.3644,0.1242,10.1533,7.0331,-2.5816,-3.702
4.16,0.0776,0.0585,9.9171,4.874,-3.0953,-3.547
4.18,0.1469,-0.0434,9.9045,8.8412,-4.4602,-2.7061
4.2,0.1743,0.0914,9.8095,10.0012,-5.8934,-2.967
4.22,-0.0286,0.0537,9.7877,8.6632,-4.1957,-1.9318
4.24,-0.1133,0.0254,9.8847,10.2613,-4.2778,-3.7894
4.26,-0.1269,-0.0479,9.9746,6.5109,-4.8105,-3.3486
4.28,-0.0813,-0.1496,10.0245,10.0975,-3.0499,-0.6005
4.3,-0.1442,-0.1231,10.0611,9.133,-2.063,-0.9907
4.32,-0.4058,-0.0515,10.1868,4.1554,-1.2952,-1.4121
4.34,-0.3707,-0.2136,10.1576,4.5277,-2.5004,1.4443
4.36,-0.3236,-0.1274,10.2614,4.5921,-0.5166,1.9106
4.38,-0.2127,-0.1286,10.2782,6.3904,1.9173,0.1661
4.4,-0.2677,-0.1854,10.1992,2.2082,0.6489,2.84
4.42,-0.2473,-0.3019,10.1803,0.9733,0.7677,3.1589
4.44,-0.3053,-0.2634,10.0904,1.4388,3.0037,1.8678
4.46,-0.3003,-0.2445,10.0966,-2.4627,4.4626,2.169
4.48,0.0399,-0.2976,9.9743,-1.206,2.9486,3.6929
4.5,0.0272,-0.2696,9.9523,-3.8219,4.7126,4.0146
4.52,0.0204,-0.3036,9.9458,-1.5878,5.6758,1.502
4.54,0.0218,-0.2977,9.8523,-5.5763,1.642,2.5493
4.56,0.0989,-0.1835,9.8987,-5.4792,6.5283,1.3851
4.58,0.1706,-0.0512,9.9702,-6.2897,7.1351,-0.4872
4.6,0.1227,-0.3237,10.0721,-5.9895,5.155,-1.7324
4.62,0.3371,-0.1573,10.0984,-7.6144,4.4132,-0.6879
4.64,0.3491,-0.2835,10.1415,-10.3586,3.5763,-1.1442
4.66,0.3197,-0.1877,10.1066,-6.2814,1.0595,-2.0744
4.68,0.4344,-0.2362,10.2644,-7.6204,0.8676,-2.0576
4.7,0.2501,-0.1386,10.2129,-5.4783,-0.4659,-3.2462
4.72,0.371,-0.1597,10.1415,-7.4397,0.8001,-3.0897
4.74,0.2505,-0.0935,10.0832,-10.6237,-2.027,-2.7678
4.76,0.3045,-0.1691,10.1303,-8.3586,-2.5351,-4.3572
4.78,0.2309,-0.0778,9.9997,-5.6505,-2.4184,-0.8382
4.8,0.0694,-0.0502,9.965,-6.2298,-1.8077,-1.2355
4.82,0.0651,-0.0339,9.9901,-2.0253,-1.2745,-0.7117
4.84,-0.1751,-0.0405,9.8467,-1.5875,-4.8946,-1.3114
4.86,-0.09,0.0829,9.8435,-1.2836,-3.9803,0.7077
4.88,0.0308,-0.038,9.9296,0.0779,-3.1648,0.5311
4.9,-0.3171,0.0514,9.8754,2.0638,-4.6985,0.9743
4.92,-0.3139,0.0059,9.9906,3.1464,-2.2194,2.6626
4.94,-0.2851,0.172,10.0243,6.0697,-3.8002,2.6623
4.96,-0.2394,0.0768,10.182,5.6251,0.8278,2.4634
4.98,-0.2211,0.1772,10.12,9.1734,-3.5284,0.728
5.0,-0.2745,0.222,10.2043,6.5836,1.3625,3.7047
5.02,-0.4025,0.2198,10.1478,6.4704,-1.627,0.6641
5.04,-0.4383,0.2656,10.1484,6.7886,-0.8271,3.4467
5.06,-0.3252,0.2363,10.1765,5.6574,0.3838,2.996
5.08,-0.2989,0.2659,9.9882,10.1382,1.9649,3.7929
5.1,-0.2932,0.2317,10.1314,5.8947,4.7746,0.3487
5.12,-0.0977,0.286,10.0643,5.7425,3.7794,0.6141
5.14,-0.3044,0.2115,10.0189,4.0262,6.4898,-1.0107
5.16,-0.0516,0.1796,9.9227,6.7021,6.5806,0.2956
5.18,0.0901,0.2625,9.7604,7.4995,3.0417,-2.1161
5.2,0.1164,0.2758,9.9553,3.8025,2.3971,-2.4811
5.22,0.1368,0.225,10.0211,2.1825,2.5279,-2.1486
5.24,0.0919,0.3425,10.0335,-1.3261,5.8745,-0.5146
5.26,0.0774,0.287,10.1059,0.599,4.1847,-2.5049
5.28,0.2273,0.3075,10.0657,2.926,5.2378,-4.1342
5.3,0.3168,0.296,10.148,-2.5309,1.5088,-1.5729
5.32,0.2912,0.1962,10.2253,-3.7832,-0.1004,-3.7265
5.34,0.2281,0.1102,10.1235,-5.9028,0.6915,-1.8467
5.36,0.2802,0.1024,10.1561,-8.1989,-2.5798,-0.5999
5.38,0.2176,0.1454,10.1562,-1.411,-4.3613,-0.4635
5.4,0.2746,0.0776,10.1701,-6.6489,-4.1467,0.4624
5.42,0.2925,0.1809,10.0782,-4.5452,-3.6206,-1.2489
5.44,0.2534,0.0748,10.0077,-5.9656,-4.6902,2.3957
5.46,0.1473,0.1014,10.0199,-7.0436,-6.0388,2.8759
5.48,0.0922,0.1527,9.9373,-6.4536,-5.9776,2.022
5.5,0.0313,-0.0618,9.7784,-7.9477,-5.1055,2.9711
5.52,0.0452,-0.0398,9.8946,-7.6087,-5.251,3.2177
5.54,-0.2757,-0.0359,9.9041,-8.5922,-7.5757,2.5496
5.56,-0.3224,-0.0114,9.9949,-9.3479,-5.3629,3.618
5.58,-0.2753,-0.1036,10.0518,-5.3478,-6.3463,2.5337
5.6,-0.3193,0.0682,10.1133,-4.9876,-1.6157,2.0002
5.62,-0.2911,-0.1827,10.2436,-4.2189,-1.7208,2.7493
5.64,-0.3607,-0.1503,10.2237,-0.4142,-3.0189,1.172
5.66,-0.4243,-0.2137,10.1761,1.8792,1.9632,2.9161
5.68,-0.3525,-0.2365,10.1592,3.9023,-1.771,-0.703
5.7,-0.3795,-0.0963,10.1413,4.1142,3.4547,-1.2286
5.72,-0.2707,-0.307,10.1575,2.6584,-1.4922,-1.265
5.74,-0.2417,-0.3277,10.048,2.6933,2.3866,-2.5147
5.76,-0.2987,-0.2958,10.0791,4.2441,3.7042,-2.8468
5.78,-0.1292,-0.2517,10.0425,6.2785,5.7371,-1.6377
5.8,-0.2201,-0.1919,10.0172,4.8594,4.7296,-3.3541
5.82,-0.0016,-0.2185,9.8187,9.998,3.6872,-3.0857
5.84,0.1128,-0.1325,9.8197,9.3288,5.3105,-4.3214
5.86,0.0211,-0.3198,9.8963,7.1353,4.8439,-1.105
5.88,0.1943,-0.0838,9.9812,9.5606,5.065,-0.3915
5.9,0.1871,-0.1854,10.1399,6.3619,3.8058,-0.8067
5.92,0.2314,-0.2795,10.2059,6.9781,5.8471,-1.1617
5.94,0.2885,-0.168,10.1483,5.0949,1.3722,0.3124
5.96,0.2791,-0.1973,10.077,5.0659,1.2957,0.218
5.98,0.2678,-0.2405,10.2104,8.2973,-1.4761,1.1058
6.0,0.4273,-0.1505,10.2044,3.4348,-0.3265,1.8579
6.02,0.163,-0.195,10.0987,5.8272,-0.0674,1.642
6.04,0.3784,0.0148,10.1378,4.6746,-1.6637,2.5337
6.06,0.1899,-0.1443,10.1084,-3.7745,-2.2351,2.6395
6.08,0.269,-0.1139,10.2254,-3.6971,-5.1401,3.6975
6.1,0.3661,-0.1252,10.1042,-3.4469,-2.3698,2.9374
6.12,0.2944,0.0649,9.9101,3.0669,-6.4039,2.2637
6.14,0.1948,-0.062,9.8352,-3.6675,-4.2697,2.5409
6.16,-0.0772,0.0181,9.862,-1.9506,-4.5015,0.3609
6.18,-0.0824,-0.0068,9.9727,-9.2201,-4.0121,-0.0783
6.2,-0.0467,0.1006,9.9907,-5.629,-5.033,0.9828
6.22,-0.2108,0.1216,10.0493,-12.2113,-4.8043,1.1279
6.24,-0.1411,0.1066,10.0978,-8.3554,-2.4429,-0.4862
6.26,-0.3766,0.1617,10.2125,-9.8459,-2.8969,-1.2198
6.28,-0.2701,0.1174,10.1584,-8.9245,-1.1685,-1.7816
6.3,-0.3469,0.08,10.1502,-6.5914,-2.6421,-2.3925
6.32,-0.3787,0.1434,10.2111,-4.1918,0.5889,-3.1815
6.34,-0.459,0.2262,10.2567,-5.8279,2.865,-2.5205
6.36,-0.424,0.207,10.2016,-4.9295,1.2949,-3.0101
6.38,-0.257,0.2982,10.1874,-4.2546,3.4711,-3.7627
6.4,-0.3302,0.2265,10.1387,-3.7991,4.4527,-3.8821
6.42,-0.3058,0.3071,10.0241,-6.1493,5.5332,-1.6372
6.44,0.1076,0.3206,9.9742,-2.6717,4.9994,-1.4104
6.46,-0.1784,0.3046,9.8961,-6.6696,3.9642,-1.4784
6.48,0.0827,0.2474,9.8892,-3.1059,3.386,1.1105
6.5,0.0192,0.1852,9.8655,-0.2071,5.7033,1.8523
6.52,0.0093,0.2276,9.9665,2.6808,5.8552,1.5051
6.54,0.1495,0.1723,9.9426,2.9175,4.1653,2.8834
6.56,0.2179,0.3703,10.0897,3.7485,4.0976,1.4618
6.58,0.3077,0.0966,10.1764,5.7907,3.0932,2.9266
6.6,0.2212,0.1541,10.2575,7.4528,1.028,3.3829
6.62,0.3756,0.3109,10.2575,7.9368,0.3245,4.7757
6.64,0.3419,0.1252,10.149,5.8696,-0.5109,3.6263
6.66,0.417,0.2286,10.2107,9.5548,2.4598,3.4858
6.68,0.4531,0.0495,10.1442,6.4974,-5.8742,2.2249
6.7,0.4051,0.0873,10.1555,6.2071,-3.4561,1.8962
6.72,0.1559,0.168,10.0016,8.2851,-4.2136,2.4728
6.74,0.2609,-0.0502,9.9174,5.1797,-4.8572,0.1144
6.76,0.1432,0.0918,9.9026,2.9505,-4.1988,-0.7542
6.78,0.0681,-0.0111,9.8887,8.7363,-7.3143,-2.2941
6.8,0.0605,0.0973,9.8102,2.3112,-8.0,-1.4258
6.82,-0.1584,0.1096,9.9939,4.2462,-4.2016,-2.3311
6.84,-0.0325,-0.0452,9.9547,5.3803,-3.7371,-0.4897
6.86,-0.3156,-0.1019,9.9758,3.1451,-4.9879,-2.2845
6.88,-0.332,-0.0972,10.1974,3.5051,-6.4772,-2.6327
6.9,-0.2173,-0.1432,10.0788,0.3137,-2.7829,-2.3935
6.92,-0.3303,0.0052,10.1274,-3.2166,-1.3264,-2.0042
6.94,-0.4503,-0.0766,10.1257,-3.3727,-1.6452,-3.086
6.96,-0.259,-0.3136,10.1731,-6.2706,1.0862,-0.342
6.98,-0.2841,-0.1057,10.0944,-5.1101,-1.3337,-1.6794
7.0,-0.3101,-0.1987,10.2555,-10.2361,0.4265,-2.1268
7.02,-0.4319,-0.157,10.1629,-3.8564,4.3341,0.1151
7.04,-0.3382,-0.1688,10.0733,-9.8917,1.611,0.8595
7.06,-0.1095,-0.2339,10.1121,-7.6533,3.3522,4.1096
7.08,-0.0073,-0.2318,9.9432,-11.209,5.0994,1.7089
7.1,-0.052,-0.2285,9.934,-5.6693,5.3055,1.711
7.12,-0.0841,-0.2149,9.7821,-6.2889,6.0609,2.7293
7.14,-0.0173,-0.3561,9.8055,-10.5635,4.9981,2.5201
7.16,0.0376,-0.1944,9.9437,-6.6269,5.5777,4.0282
7.18,0.0449,-0.1993,9.9175,-7.5597,5.8634,3.551
7.2,0.2817,-0.2234,10.1418,-8.158,3.3291,2.621
7.22,0.4382,-0.1632,10.1766,-5.5825,6.461,2.6205
7.24,0.2314,-0.0724,10.095,-4.6831,1.9195,0.6274
7.26,0.3788,-0.1829,10.2004,2.0269,-1.0817,2.3466
7.28,0.2828,-0.0963,10.3039,4.0696,0.1309,-0.8634
7.3,0.3741,-0.1699,10.1194,2.1776,-1.9356,1.0452
7.32,0.4111,-0.1648,10.1934,1.4444,-2.1852,2.0263
7.34,0.2325,-0.1244,10.2109,2.3376,-3.3332,-3.0185
7.36,0.3648,-0.0636,10.1414,1.1907,-2.4367,-1.9303
7.38,0.1942,-0.1665,10.0601,3.4676,-3.7539,-2.5591
7.4,0.1378,-0.0078,9.9951,7.1432,-3.783,-1.8796
7.42,0.0251,-0.0576,9.973,7.1216,-3.0931,-2.2522
7.44,0.0002,0.04,9.8381,9.2936,-2.1931,-1.8538
7.46,0.1512,-0.0817,9.8191,7.2361,-5.5795,-2.362
7.48,-0.128,0.1019,9.9719,8.7975,-6.3161,-1.8288
7.5,-0.1075,0.0806,9.996,10.7814,-5.259,-2.2563
7.52,-0.1649,0.1144,10.1021,7.2312,-5.8808,-2.5388
7.54,-0.3015,0.1526,10.1546,3.7985,-2.4336,-0.7299
7.56,-0.3889,0.258,10.1724,8.5376,1.4124,-0.5305
7.58,-0.3645,0.2361,10.1249,6.3178,-1.4825,1.7113
7.6,-0.315,0.1109,10.2557,6.999,-2.1831,0.7039
7.62,-0.3911,0.1141,10.2622,3.6723,-0.0553,0.9294
7.64,-0.3692,0.2878,10.2333,-0.0073,-0.1687,3.0722
7.66,-0.3534,0.1792,10.1253,-0.6047,2.3639,2.3943
7.68,-0.1865,0.2202,10.0791,2.2255,5.062,2.2272
7.7,-0.3677,0.2051,10.007,2.8815,1.6688,2.6638
7.72,-0.0586,0.2936,9.9861,-3.1979,4.0452,2.6186
7.74,0.0048,0.2372,9.8739,-0.851,6.2774,2.345
7.76,0.0127,0.2525,9.8058,-4.1076,3.2336,1.512
7.78,-0.0565,0.2699,9.8406,-7.613,3.6131,1.6021
7.8,0.1228,0.2524,9.7975,-3.3085,7.5065,2.5606
7.82,0.193,0.2843,9.9481,-6.2724,2.8253,0.418
7.84,0.0933,0.2726,10.0296,-5.723,4.2988,-0.8599
7.86,0.3255,0.1584,10.0917,-8.7653,4.4937,-1.1509
7.88,0.3204,0.2495,10.0342,-9.7912,2.7777,-0.6799
7.9,0.3741,0.2838,10.1741,-7.7948,0.9825,-2.6537
7.92,0.2791,0.1577,10.1954,-9.1647,0.8355,-4.4428
7.94,0.384,0.1844,10.2321,-8.4651,-0.9331,-1.9064
7.96,0.3286,0.2747,10.1293,-7.5282,-2.8218,-3.7843
7.98,0.2561,0.107,10.214,-8.6476,-1.1333,-4.3856
8.0,0.2532,0.1941,10.1596,-4.9888,-1.9439,-2.157
8.02,0.2916,0.177,10.0339,-4.7154,-2.6656,-1.6243
8.04,0.2326,0.1483,9.9997,-6.2041,-2.3095,-1.8876
8.06,0.0836,0.0485,9.9341,-0.3387,-3.3212,-0.9862
8.08,0.1056,0.0243,9.9325,-5.8677,-6.6725,-0.679
8.1,-0.0383,-0.0589,9.847,-1.8604,-4.6734,0.1785
8.12,-0.068,-0.0758,9.8833,3.7854,-4.0759,1.7075
8.14,-0.1437,-0.1522,9.9435,2.2333,-2.6472,2.5308
8.16,-0.1628,-0.1249,10.0413,3.1534,-4.5005,0.7364
8.18,-0.2117,-0.0981,10.1346,1.8075,-5.2065,6.0849
8.2,-0.362,-0.1009,10.1652,3.7066,-0.1734,2.7103
8.22,-0.3115,-0.0299,10.1401,5.4996,-2.4283,1.5908
8.24,-0.3211,-0.1301,10.2114,8.4349,0.315,3.3299
8.26,-0.3693,-0.1032,10.1752,10.3931,-0.3096,3.6224
8.28,-0.1976,-0.3286,10.1932,7.0871,3.505,2.1631
8.3,-0.1062,-0.2989,10.1984,7.2272,2.6303,1.5785
8.32,-0.3293,-0.3292,10.1505,4.9166,0.7666,1.6886
8.34,-0.2605,-0.1687,10.029,8.4769,3.9709,0.6711
8.36,-0.2634,-0.2434,10.0817,6.4264,5.3834,0.0188
8.38,-0.0019,-0.2431,9.9611,3.3188,2.4428,-0.0226
8.4,-0.0936,-0.2317,9.8619,5.4491,3.9471,-0.7835
8.42,-0.0255,-0.1381,9.7848,7.0588,3.4169,-2.1607
8.44,-0.0078,-0.1735,9.8999,4.051,5.2789,-3.3049
8.46,0.2371,-0.1625,9.951,2.6679,5.6447,-2.8012
8.48,0.1695,-0.2699,10.0048,0.4904,5.3343,-3.218
8.5,0.205,-0.2701,10.0085,3.3295,4.412,-2.1312
8.52,0.2416,-0.1351,10.1419,1.8759,2.9018,-2.9887
8.54,0.2759,-0.2058,10.1848,0.7423,4.3946,-2.6416
8.56,0.4378,-0.3594,10.1754,-2.9035,2.5007,-1.9486
8.58,0.3452,-0.2082,10.1697,-0.6771,1.8944,-0.5762
8.6,0.3468,-0.1949,10.2331,-5.5007,-0.9479,-1.3196
8.62,0.2787,-0.196,10.1742,-9.0616,-0.7969,0.203
8.64,0.2387,-0.2329,10.1728,-6.5022,-2.5385,-1.2766
8.66,0.1065,0.0011,10.0963,-6.4908,-3.454,1.1617
8.68,0.1077,-0.1058,9.9821,-10.0142,-5.0644,-0.4085
8.7,0.1151,-0.0983,9.9244,-8.2575,-4.5209,1.1356
8.72,0.2493,0.0113,9.9671,-8.6085,-3.4976,3.2063
8.74,-0.06,-0.0486,9.9803,-8.543,-4.2603,2.5627
8.76,0.0202,-0.0431,9.8126,-5.0351,-4.6583,0.4864
8.78,-0.1104,0.0297,9.9739,-6.0695,-4.2224,3.0784
8.8,-0.1508,-0.0048,9.9682,-7.6627,-6.3494,3.6448
8.82,-0.1431,0.1243,10.042,-6.1357,-4.4368,3.681
8.84,-0.2339,0.214,10.077,-4.4944,-4.9657,0.7239
8.86,-0.3247,0.1108,10.1413,-5.9972,-1.9619,1.3148
8.88,-0.2637,0.184,10.1295,-0.9506,-2.253,2.5025
8.9,-0.3512,0.1393,10.1884,-3.5161,1.51,2.4084
8.92,-0.4861,0.1714,10.2019,-0.4628,2.3928,0.8399
8.94,-0.3532,0.326,10.1929,1.4645,1.9331,-1.8281
8.96,-0.1907,0.2521,10.143,2.753,1.0419,-1.4358
8.98,-0.3722,0.2266,10.0912,5.3588,4.7675,-1.436
9.0,-0.2303,0.1931,10.047,5.1906,4.6153,-3.1958
9.02,-0.2413,0.253,10.0653,9.8422,5.6075,-3.881
9.04,0.0114,0.1966,9.8872,7.6799,2.7157,-2.1962
9.06,-0.0391,0.2736,9.8086,9.0806,5.745,-3.3066
9.08,0.1086,0.0901,9.8658,7.5583,3.7852,-2.5528
9.1,0.1395,0.2032,9.9178,7.8893,5.3828,-1.1427
9.12,0.1252,0.3218,9.9303,8.581,1.8501,-1.8094
9.14,0.2769,0.3572,10.0628,6.2983,5.4391,-1.2503
9.16,0.2755,0.2817,10.1704,3.9589,3.3003,-0.6484
9.18,0.2205,0.118,10.1564,5.9455,1.3387,-0.0759
9.2,0.305,0.2032,10.2695,6.0973,4.3581,1.9957
9.22,0.4249,0.1432,10.1925,3.4549,1.2154,1.3342
9.24,0.3843,0.1881,10.2173,3.59,-1.8359,1.5336
9.26,0.3947,0.1416,10.1926,4.9455,-0.599,0.9681
9.28,0.3067,0.0792,10.1651,2.8193,-1.4703,4.4424
9.3,0.237,0.0926,10.1554,2.7427,-4.6018,3.6513
9.32,0.2839,0.079,10.0596,1.0443,-3.1196,3.3914
9.34,0.1171,-0.0384,10.006,-2.1928,-3.6378,2.0909
9.36,0.1647,0.0658,9.9032,-0.9505,-5.2419,1.8697
9.38,0.0681,0.0163,9.8197,-2.722,-4.9664,1.3803
9.4,-0.16,0.0186,9.8374,-4.75,-2.9269,-0.895
9.42,0.0149,0.0506,9.86,-3.866,-6.0622,-0.0759
9.44,-0.1585,0.0546,10.0,-6.5606,-3.1863,-0.3371
9.46,-0.0887,0.0158,10.0697,-8.8417,-2.408,-0.1164
9.48,-0.2073,-0.0328,10.1276,-9.5006,-1.1311,-0.8062
9.5,-0.2734,-0.0858,10.1677,-6.445,-2.2947,-1.8789
9.52,-0.3727,-0.1739,10.1712,-6.0166,-2.2234,-2.3364
9.54,-0.3538,-0.1304,10.2375,-3.9091,-2.8704,-2.8574
9.56,-0.3039,-0.2811,10.2968,-7.7638,-1.0052,-1.9209
9.58,-0.5165,-0.1832,10.1498,-7.0541,1.7065,-2.2054
9.6,-0.2859,-0.0849,10.1775,-7.032,3.9012,-3.0079
9.62,-0.2516,-0.4585,10.1584,-5.669,2.249,-3.3849
9.64,-0.1683,-0.3548,10.2424,-2.2499,4.1865,-0.4669
9.66,-0.1651,-0.2938,10.0751,-6.7594,5.1262,-0.6803
9.68,-0.0837,-0.3328,9.9648,-2.5788,3.5486,-3.6002
9.7,-0.1561,-0.2791,9.9363,4.3843,6.208,-1.4168
9.72,-0.0274,-0.1851,9.8479,0.8975,5.3563,1.2644
9.74,0.2525,-0.248,9.9021,2.3594,4.1948,-1.4375
9.76,0.1777,-0.2889,10.0338,2.9178,6.8397,0.5469
9.78,0.2881,-0.3367,10.0827,3.2195,5.5329,1.6199
9.8,0.3042,-0.2004,10.1144,5.6317,6.0259,1.8837
9.82,0.4045,-0.2414,10.2043,10.364,1.5548,0.624
9.84,0.337,-0.2491,10.1538,5.8277,1.0954,4.3962
9.86,0.4334,-0.1236,10.318,5.5905,-2.7764,5.0139
9.88,0.37,-0.1802,10.1199,4.903,1.043,2.7112
9.9,0.1713,-0.2154,10.255,10.4554,-0.6375,5.3983
9.92,0.4063,-0.0309,10.2471,9.6624,-3.8954,0.5357
9.94,0.2333,-0.1032,10.1444,8.6589,-2.7737,2.0703
9.96,0.3291,-0.0964,10.0814,2.3865,-2.1896,0.1898
9.98,0.1255,-0.0221,10.0824,8.5252,-2.6915,-0.8122
10.0,0.1205,-0.0837,10.0552,8.257,-4.9554,0.4268
10.02,0.1043,-0.0338,9.9183,7.4377,-5.0991,-2.3393
10.04,0.0354,-0.0184,9.7608,3.2694,-5.3732,-1.6771
10.06,-0.0156,0.009,9.9017,3.0129,-4.1061,-1.8247
10.08,-0.0803,0.1319,9.9397,-0.5634,-4.7824,-1.8217
10.1,-0.1844,0.0884,9.9369,-0.2447,-3.4235,-2.1148
10.12,-0.3001,0.1143,10.0488,-2.1151,-3.5323,-2.7811
10.14,-0.2529,0.1581,10.2192,0.849,-3.4509,-2.0022
10.16,-0.436,0.1413,10.2267,-0.9033,-0.829,-0.817
10.18,-0.3998,0.2027,10.1945,-1.1911,-0.9789,-1.583
10.2,-0.226,0.2111,10.1992,-5.2323,-1.2371,-0.8375
10.22,-0.2408,0.1753,10.1148,-6.7325,1.4217,-2.2317
10.24,-0.4856,0.1781,10.0839,-5.6518,1.1068,-0.5647
10.26,-0.196,0.1632,10.0451,-7.0452,3.2856,-1.3609
10.28,-0.2887,0.2077,10.1077,-8.7372,7.3542,0.4962
10.3,-0.1942,0.2082,9.9168,-5.0819,-0.7253,2.7645
10.32,-0.2568,0.1623,9.9772,-3.6009,4.9898,1.7895
10.34,-0.1488,0.2871,9.8913,-6.522,1.8965,2.9755
10.36,0.005,0.1683,9.7817,-8.0102,4.2617,3.0714
10.38,-0.0674,0.1964,9.9698,-8.9807,4.3149,2.7886
10.4,0.091,0.319,9.9109,-4.9912,3.4477,3.7631
10.42,0.1579,0.231,10.0056,-4.8447,2.54,1.8827
10.44,0.3931,0.2645,10.055,-3.7623,3.6769,0.311
10.46,0.2896,0.2172,10.1436,-5.576,2.7321,3.2756
10.48,0.3007,0.187,10.1857,-3.6981,3.8454,1.415
10.5,0.3663,0.1568,10.133,-0.2845,1.7332,1.5972
10.52,0.4079,0.0953,10.2148,-4.5067,1.1657,-0.8074
10.54,0.385,0.2097,10.1803,0.6988,1.252,-2.0721
10.56,0.3848,0.1544,10.2383,-1.3368,-1.5225,0.012
10.58,0.4151,0.0809,10.1462,6.8246,-4.5465,-1.753
10.6,0.2822,0.1161,10.0696,6.17,-1.8824,-0.4141
10.62,0.1562,0.0543,10.1158,8.8691,-3.9079,-4.1609
10.64,0.1457,0.1178,10.0302,8.3359,-1.5373,-3.3249
10.66,0.0279,-0.036,9.9184,8.8728,-2.1998,-2.7795
10.68,0.0349,0.0041,9.9099,5.8711,-5.1341,-3.0186
10.7,-0.0362,0.0963,9.8043,12.6884,-5.9592,-3.546
10.72,-0.1534,0.0026,9.9242,10.2162,-6.0247,-4.0361
10.74,-0.193,-0.0433,9.9231,7.765,-3.6191,-2.6794
10.76,-0.2858,-0.149,10.0541,8.7032,0.2314,-0.1164
10.78,-0.3692,-0.1979,10.1111,10.5599,-2.2257,-1.1488
10.8,-0.2264,-0.0445,10.2334,4.7302,-1.7564,-1.2089
10.82,-0.3978,-0.2241,10.1779,3.2733,-0.3608,0.7498
10.84,-0.4168,-0.1371,10.2839,5.9706,-1.4522,1.127
10.86,-0.3573,-0.2257,10.1232,3.5305,2.2555,1.1562
10.88,-0.4915,-0.2045,10.2504,-0.2527,1.63,2.8606
10.9,-0.2697,-0.1794,10.1977,-1.1477,3.172,4.1602
10.92,-0.2942,-0.2023,10.0752,3.4055,2.139,4.6157
10.94,-0.2603,-0.1935,10.0461,3.3153,0.8121,3.3591
10.96,-0.3411,-0.3138,10.1043,0.1466,1.3168,2.846
10.98,-0.1625,-0.2124,10.0316,-1.5508,5.3844,3.0686
11.0,-0.1344,-0.2074,9.9098,-5.2037,3.991,3.5809
11.02,0.0375,-0.3181,9.8125,-5.9188,4.8944,1.5137
11.04,0.0677,-0.1476,9.9518,-2.9424,2.2986,1.0675
11.06,0.2453,-0.2003,9.949,-8.1829,5.9483,0.0621
11.08,0.2612,-0.2279,10.0434,-7.0323,2.7626,1.2794
11.1,0.3033,-0.1446,10.0801,-8.7818,2.8766,-1.9571
11.12,0.3541,-0.1749,10.1271,-8.5826,3.1429,-2.4628
11.14,0.2963,-0.1111,10.1487,-9.0285,5.461,-4.359
11.16,0.2511,-0.082,10.1848,-6.8547,3.9454,-3.3517
11.18,0.3024,-0.1485,10.2059,-8.5749,-0.4008,-4.2227
11.2,0.3777,-0.1048,10.191,-7.4626,-0.3369,-3.5366
11.22,0.2938,-0.1393,10.2475,-6.4348,-2.2463,-3.1046
11.24,0.2537,-0.1721,10.0891,-3.7848,-3.7672,-2.6316
11.26,0.2017,-0.1718,10.0608,-1.7484,-4.264,-3.037
11.28,0.1519,-0.0893,10.0342,-4.2932,-4.3805,-2.3608
11.3,0.1541,-0.0269,9.9641,-1.048,-4.8162,-0.0654
11.32,0.0975,0.0677,9.8748,-0.5586,-5.9487,-0.6023
11.34,0.0581,-0.0193,9.893,0.1863,-2.6241,-0.9729
11.36,-0.0968,-0.003,9.9459,2.6537,-4.9995,0.3098
11.38,-0.1413,0.0942,10.0109,2.452,-5.2582,1.5161
11.4,-0.1881,0.0894,10.0142,7.192,-5.0615,3.4987
11.42,-0.1388,0.1538,10.1898,5.8735,-3.9695,1.9282
11.44,-0.3465,0.1691,10.0706,2.8534,-0.441,3.797
11.46,-0.2911,0.195,10.2193,6.1237,-4.0851,4.2499
11.48,-0.3079,0.0764,10.2098,6.2033,-1.127,2.6615
11.5,-0.3059,0.1644,10.1523,8.9584,0.7387,1.4252
11.52,-0.3106,0.2465,10.1947,8.2765,-0.173,0.8086
11.54,-0.282,0.2024,10.2015,7.5304,1.51,2.2907
11.56,-0.2971,0.2722,10.1225,5.0178,2.9725,0.2801
11.58,-0.4521,0.1648,10.073,6.0314,1.2037,0.7282
11.6,-0.1,0.2886,10.0359,8.999,3.4689,-0.6109
11.62,-0.0836,0.1799,9.9843,6.4669,4.0513,-0.8835
11.64,0.0177,0.1532,9.9073,5.1459,3.7769,-1.06
11.66,0.0193,0.2464,9.8291,7.6201,4.0979,-1.2952
11.68,-0.0775,0.2764,9.787,5.0054,4.2092,-2.0709
11.7,0.0104,0.2472,9.9962,3.8446,4.6343,-2.6428
11.72,0.279,0.2843,9.9929,0.245,3.2037,-2.9311
11.74,0.148,0.1027,10.0743,0.6763,3.9081,-1.9135
11.76,0.1818,0.1914,10.0639,-0.5759,2.7405,-3.4206
11.78,0.3223,0.1676,10.1235,0.8809,3.2731,-2.9066
11.8,0.2175,0.183,10.2282,-3.098,2.6544,-1.1315
11.82,0.343,0.1519,10.185,-5.3399,1.5378,-2.2912
11.84,0.2112,0.1902,10.2001,-6.4139,-3.7308,-0.1051
11.86,0.3843,0.0749,10.1931,-8.482,-3.7635,-2.7131
11.88,0.3615,0.1754,10.1364,-7.1175,0.0374,-0.6759
11.9,0.1638,0.1086,10.133,-8.1067,-5.5093,0.0019
11.92,0.263,0.1212,9.9644,-10.2927,-5.4966,1.3918
11.94,0.3266,0.0378,9.9846,-9.5878,-0.6389,1.387
11.96,0.0454,0.0404,9.8425,-6.3299,-4.858,1.6106
11.98,-0.0283,-0.1067,9.8043,-12.2596,-5.6681,2.2898
12.0,-0.0955,-0.0523,9.8232,-4.8199,-2.7932,2.7978
12.02,-0.0228,-0.0598,9.9255,-8.3481,-3.6797,3.6072
12.04,-0.2791,-0.0555,9.9852,-7.7362,-4.3612,0.931
12.06,-0.2656,0.0252,10.0957,-7.3027,-2.9271,2.6454
12.08,-0.303,-0.1455,10.1269,-5.1947,-3.3107,2.8653
12.1,-0.248,-0.2094,10.1446,0.322,0.4647,1.95
12.12,-0.2087,-0.079,10.1891,-5.6969,-1.4175,-0.3327
12.14,-0.3381,-0.0653,10.2213,-2.0461,-2.1256,-1.6955
12.16,-0.5,-0.0894,10.2499,0.502,0.367,-0.481
12.18,-0.3339,-0.1187,10.21,-1.9792,3.1331,-3.0321
12.2,-0.3384,-0.2987,10.1616,0.6452,0.3633,-2.7627
12.22,-0.2023,-0.2379,10.1489,6.978,3.5842,-1.6673
12.24,-0.2964,-0.241,10.0026,6.3607,5.2617,-1.6722
12.26,-0.1643,-0.1891,9.9879,4.9995,5.1848,-2.1705
12.28,0.0771,-0.2037,9.8684,4.8884,2.8423,-2.9212
12.3,-0.1206,-0.168,9.8328,8.686,5.2057,-2.5952
12.32,-0.0478,-0.2517,9.8288,7.5798,5.1618,-2.0395
12.34,0.0643,-0.1979,9.9425,11.2528,-0.1841,-2.9988
12.36,0.2649,-0.3939,10.0719,8.141,1.3521,-1.1387
12.38,0.1365,-0.2904,10.1355,7.0124,2.4414,0.7361
12.4,0.3433,-0.2465,10.0779,7.0007,5.5658,-1.5933
12.42,0.2052,-0.1386,10.1468,7.054,3.1867,-0.3069
12.44,0.1398,-0.2144,10.2534,10.4778,1.332,0.7439
12.46,0.457,-0.1507,10.2222,1.3071,-0.0628,1.6352
