time_s,Ax,Ay,Az,Gx,Gy,Gz
0.0,0.0248,0.0166,9.8155,-0.6707,0.8583,0.0375
0.02,-0.029,0.0056,9.798,-0.3855,0.1484,-0.0321
0.04,-0.038,-0.0241,9.7922,0.9706,-0.4911,-0.2137
0.06,-0.0434,-0.0484,9.8811,0.291,-0.7676,-0.5164
0.08,-0.0068,-0.0319,9.7754,-0.7959,-0.5723,0.8501
0.1,0.0316,-0.0141,9.8007,-0.0096,0.3489,0.9884
0.12,-0.0643,0.0129,9.7827,0.1666,0.3746,0.3446
0.14,0.0089,0.0247,9.866,0.079,-0.2483,0.5449
0.16,-0.0237,-0.0389,9.8205,-0.0752,-0.7642,-0.5509
0.18,0.0182,-0.0183,9.8194,-0.4797,0.2724,-0.1338
0.2,0.0099,0.0259,9.8191,-0.1287,-0.6955,-0.1589
0.22,-0.0007,0.0221,9.7907,1.2805,0.2767,-0.2281
0.24,-0.0129,-0.039,9.8211,0.3382,0.3009,-0.6251
0.26,0.05,0.0019,9.7884,0.1733,0.172,-0.1075
0.28,-0.0076,-0.0314,9.7716,-1.1674,-0.3463,0.1603
0.3,-0.0191,-0.0256,9.8333,0.3525,0.2203,0.4656
0.32,-0.0059,-0.0616,9.7885,0.0891,0.1305,-0.1877
0.34,0.0602,-0.0773,9.796,-0.6404,-0.9316,-0.0402
0.36,0.0036,0.0079,9.8455,-0.5033,0.3288,0.0453
0.38,-0.0177,0.0278,9.8237,0.5964,0.1337,-0.0067
0.4,0.0352,-0.006,9.7919,0.3305,-1.0178,-0.4684
0.42,-0.0022,0.0086,9.8214,0.4015,0.0564,0.391
0.44,0.0027,-0.0055,9.8526,0.3716,0.0661,-0.2557
0.46,-0.0101,-0.0511,9.8217,-0.8428,-0.1387,0.305
0.48,0.0041,-0.0125,9.8363,0.0073,0.3627,0.5939
0.5,0.0137,0.0194,9.8229,-0.7034,-0.3509,-0.0698
0.52,0.0181,0.0205,9.7693,0.8575,-0.0382,-0.3907
0.54,0.0358,-0.0132,9.836,0.124,0.3278,-0.6826
0.56,0.0276,0.0203,9.7872,-0.1869,-0.1949,-0.1468
0.58,0.0148,0.0054,9.8073,0.4526,0.3265,-0.4556
0.6,-0.0285,0.0664,9.8313,-0.5664,0.8344,-0.2842
0.62,0.0594,-0.0029,9.8509,-0.7759,0.5554,-0.667
0.64,0.0189,0.0317,9.8519,-0.5753,-0.3924,0.1676
0.66,0.013,0.0121,9.8265,-0.3886,0.5315,0.123
0.68,0.031,-0.0345,9.8523,0.0241,0.1359,-0.3482
0.7,0.0428,0.027,9.7539,0.3234,0.817,-0.0578
0.72,-0.0038,-0.0195,9.764,0.8942,-0.6028,0.228
0.74,0.0019,-0.0149,9.8486,0.0799,-0.9451,0.2065
0.76,-0.0182,-0.0475,9.8278,-0.3963,0.9174,0.2461
0.78,-0.0275,-0.0452,9.8662,0.6251,0.1332,0.4753
0.8,0.041,-0.0706,9.8348,-0.2248,-0.2966,0.3914
0.82,-0.0001,0.0248,9.7933,0.6462,0.7152,0.2987
0.84,0.0147,0.0028,9.8339,0.3296,-0.1699,0.4964
0.86,0.0168,-0.0187,9.8064,0.3332,0.6708,-0.118
0.88,-0.0006,-0.0247,9.8052,-0.0104,1.1295,-0.135
0.9,-0.0097,0.0587,9.7834,-0.6915,-0.658,0.3409
0.92,0.0252,-0.0209,9.8058,0.1273,0.3768,-0.5933
0.94,0.0179,0.0187,9.801,-0.0723,0.3039,-0.4329
0.96,0.0327,0.0234,9.7901,0.1415,0.2582,0.0438
0.98,0.0753,0.0205,9.8297,-0.4812,1.2824,-1.0749
1.0,0.0024,0.0081,9.7764,0.6607,-0.8793,-0.0628
1.02,-0.0161,-0.0368,9.8101,0.7214,-0.7561,-0.2985
1.04,-0.0136,0.0211,9.8334,0.1577,-0.206,0.3333
1.06,0.0752,0.0068,9.8201,0.0277,0.0477,-0.4286
1.08,-0.018,-0.0192,9.8491,0.4567,-0.0165,-0.0178
1.1,-0.0009,0.065,9.819,-0.218,0.5307,-0.4624
1.12,-0.0182,0.0092,9.8104,-0.1579,0.0938,0.3484
1.14,0.0605,0.0576,9.8097,-0.3484,-0.1354,0.3065
1.16,0.0003,-0.0168,9.7763,-0.0367,-0.014,-0.637
1.18,0.0199,0.037,9.8035,-0.2539,0.093,0.4241
1.2,-0.0147,0.0161,9.8395,-0.9022,-0.334,0.0896
1.22,0.0381,0.0229,9.8056,0.4619,-0.5132,0.1012
1.24,-0.0141,-0.0562,9.7643,0.7742,-0.4073,0.1185
1.26,0.0539,0.0106,9.8568,-0.5976,-0.7227,-0.4511
1.28,0.01,0.035,9.8135,-0.479,-0.0582,0.3256
1.3,0.0144,0.0245,9.7875,-0.0069,-0.8284,-0.4057
1.32,-0.0192,0.0111,9.8089,0.9345,0.824,0.115
1.34,0.0134,0.0297,9.7851,0.2739,1.0016,0.127
1.36,0.0705,0.0085,9.7894,0.2222,-0.1938,0.4055
1.38,0.0143,0.0123,9.7985,0.515,0.2275,0.6686
1.4,0.0469,0.0146,9.8187,-0.6968,0.9345,0.2249
1.42,0.0051,-0.0534,9.7936,0.3373,-0.3721,-0.0117
1.44,0.0024,0.0227,9.8126,1.4283,0.2275,-0.5542
1.46,-0.0123,0.0105,9.863,-0.3166,0.1745,-0.1585
1.48,-0.0663,0.0454,9.7723,-0.8163,-0.0392,-0.058
1.5,0.0287,-0.0061,9.9064,0.354,-0.0157,-0.152
1.52,0.0005,-0.0549,9.774,-0.4255,-0.3376,0.3196
1.54,0.0451,0.0218,9.7836,-0.3735,-0.0856,-0.7544
1.56,0.0168,-0.0005,9.8519,0.6229,-0.8311,-0.01
1.58,-0.0621,0.0222,9.8019,0.1154,-0.0701,-0.4475
1.6,-0.0093,0.006,9.7875,-0.5648,-0.7416,-0.0415
1.62,-0.0046,0.0328,9.7881,-0.2532,-0.509,-0.5671
1.64,-0.0454,0.0418,9.8088,-0.0862,-0.1865,0.1532
1.66,-0.068,0.047,9.8061,-0.0474,-0.1177,-0.1166
1.68,-0.0097,-0.0457,9.8092,-0.0397,0.3302,0.5658
1.7,-0.0668,0.0015,9.8234,-0.3434,0.3973,-0.5138
1.72,-0.0245,-0.022,9.818,-0.0952,0.1756,0.0504
1.74,0.0235,-0.026,9.7947,0.3015,-0.3556,0.7524
1.76,0.0057,0.039,9.8332,0.2955,-0.0267,-0.3637
1.78,-0.006,0.0252,9.8058,0.2478,0.2592,0.5048
1.8,-0.0061,0.0054,9.8506,-0.6124,0.4008,0.5539
1.82,0.0014,-0.0336,9.8136,0.4647,0.9676,0.4389
1.84,-0.0273,-0.0458,9.7921,0.2393,0.3932,-0.3476
1.86,-0.0137,0.0192,9.865,-0.2142,0.6644,0.2765
1.88,0.0202,0.0015,9.7961,0.2809,0.4894,-0.1419
1.9,-0.0314,0.0501,9.7742,0.9964,0.795,-0.2721
1.92,-0.0212,0.0137,9.8332,0.4297,-0.4809,0.7226
1.94,-0.0062,-0.0097,9.7912,-0.1986,0.6707,-0.466
1.96,0.0058,0.0084,9.8796,-0.0178,-0.4388,0.6358
1.98,0.0319,-0.0682,9.8313,0.3558,0.0155,-0.25
2.0,-0.0814,-0.017,9.8245,0.2021,-1.2176,-0.2017
2.02,0.0407,0.0344,9.8139,-0.808,1.2699,-0.0463
2.04,0.0083,0.0092,9.7955,0.2558,-0.4076,-1.0862
2.06,0.0174,0.0589,9.8373,0.412,-0.3818,0.3254
2.08,0.0309,-0.0697,9.8374,-0.7855,-0.0211,-0.1844
2.1,0.0095,0.0101,9.7939,0.057,0.1798,0.0921
2.12,-0.0172,-0.0127,9.8101,0.4494,-0.2998,-0.2941
2.14,0.0275,-0.0601,9.807,0.1273,0.3995,0.124
2.16,0.0163,0.0021,9.8436,0.4142,0.5436,-0.343
2.18,0.0069,-0.0199,9.794,-0.2788,0.0497,-0.3489
2.2,-0.0647,0.0317,9.7721,0.3439,-0.5073,1.1178
2.22,-0.0346,0.0495,9.8092,-0.3182,-0.2321,-0.1195
2.24,0.0373,-0.0222,9.7913,-0.2637,0.4027,0.1161
2.26,0.0182,0.0205,9.8088,-0.2319,-0.2055,0.0913
2.28,-0.0283,-0.0277,9.7857,-0.5918,0.1451,0.0771
2.3,-0.0172,-0.0574,9.801,-0.5841,0.4974,0.4368
2.32,0.0139,0.0367,9.7986,0.1559,0.5118,-0.8133
2.34,-0.0118,0.0102,9.8187,-0.4354,-0.1978,-0.1865
2.36,-0.0079,-0.0559,9.7877,-0.2044,0.373,0.3898
2.38,-0.0433,-0.0258,9.822,-0.7471,-0.002,-0.0598
2.4,-0.0346,-0.0069,9.8209,-0.6741,0.6537,-0.2186
2.42,-0.0704,0.0025,9.7838,-0.1746,-0.0845,-0.2246
2.44,0.0549,0.0145,9.7807,-0.9364,-0.0495,0.3622
2.46,-0.0357,0.0007,9.8208,-0.5998,0.2595,-0.0833
2.48,-0.0347,0.0203,9.8255,0.7318,0.7221,0.1666
2.5,-0.0882,-0.005,9.7855,-0.6111,0.4246,0.452
2.52,-0.0253,-0.0005,9.795,0.2819,0.8708,0.1269
2.54,-0.0084,-0.0204,9.7895,0.2309,-0.1774,0.4328
2.56,-0.0716,0.0164,9.7979,-0.6394,-0.4308,0.5351
2.58,0.0403,0.0088,9.7656,-1.0008,-0.3863,-0.1813
2.6,-0.0553,0.0287,9.8131,0.2128,-0.538,0.361
2.62,-0.0526,0.043,9.8159,0.6288,-1.1218,-0.1761
2.64,-0.0771,0.0217,9.7878,0.6321,0.585,-0.2916
2.66,-0.0135,-0.0103,9.7615,0.8094,-0.2266,0.1046
2.68,0.033,-0.0254,9.8206,0.031,0.6586,0.3712
2.7,-0.0084,0.0276,9.8353,-0.2696,-0.6269,-0.3144
2.72,-0.077,0.0202,9.8108,-0.691,0.0204,0.0715
2.74,-0.0422,0.0445,9.8039,-0.9783,-0.886,-0.0943
2.76,-0.013,-0.0483,9.753,-0.4525,-0.3888,-0.1453
2.78,-0.0598,-0.0267,9.8073,0.908,-0.1488,-0.9965
2.8,-0.0135,0.0322,9.7791,-0.2484,0.9299,-0.6752
2.82,-0.034,0.0113,9.8402,0.2233,-0.0346,-0.2058
2.84,-0.0204,-0.0347,9.8168,-0.3593,-0.602,-0.0319
2.86,-0.001,-0.0338,9.816,-0.9411,-0.3753,0.5323
2.88,0.0223,0.0509,9.7852,0.5457,-0.3859,-0.5033
2.9,-0.0023,-0.0127,9.843,-0.4414,0.6869,-0.3936
2.92,0.0021,0.0135,9.8105,0.3429,-0.5507,0.1848
2.94,-0.034,0.031,9.7923,1.1397,-0.962,0.4081
2.96,-0.0357,-0.0272,9.7906,-0.3237,-0.2838,0.453
2.98,-0.0359,0.003,9.8057,0.4354,-0.4024,-0.1636
3.0,0.013,0.0135,9.828,1.1217,-0.2019,0.3303
3.02,-0.0049,-0.0261,9.7708,-0.8197,-0.1789,-0.4406
3.04,-0.0428,-0.0077,9.7992,1.2878,0.6536,0.2238
3.06,0.0193,-0.0054,9.8536,-0.7469,-0.398,0.1534
3.08,0.0271,0.0342,9.8356,0.4673,-0.3852,0.0135
3.1,-0.0018,0.0408,9.7965,0.3448,0.0953,-0.6905
3.12,-0.0654,0.0246,9.7894,-0.3471,-0.2995,-0.1715
3.14,-0.0185,-0.0654,9.8693,0.384,-0.3511,0.3817
3.16,0.0166,0.0521,9.7971,0.1983,0.8195,0.158
3.18,-0.0216,0.0301,9.8001,-0.2363,-0.0499,0.2039
3.2,-0.0122,0.0368,9.8093,-0.4266,-0.1576,-0.2067
3.22,-0.0323,0.0258,9.7824,-0.25,-0.0185,0.5833
3.24,0.0084,0.0038,9.7902,-0.4425,0.0624,0.0107
3.26,0.016,0.0631,9.8009,-0.0638,0.6162,-0.6411
3.28,-0.0227,0.0084,9.8185,-0.588,-0.6713,0.3889
3.3,0.0207,0.0169,9.8082,0.518,0.3731,0.0297
3.32,0.0165,0.0247,9.7899,-0.3548,0.714,-0.7288
3.34,0.014,-0.0272,9.801,-0.5571,0.4294,0.1071
3.36,0.0196,0.0657,9.8227,-0.3369,-0.2131,-0.0847
3.38,-0.0154,-0.044,9.82,-0.4179,-0.6594,0.192
3.4,-0.0197,-0.0493,9.8051,0.111,1.0213,-0.0974
3.42,0.0786,-0.0249,9.8017,-0.9592,-0.4332,-0.4708
3.44,-0.0518,-0.0209,9.7973,-0.4878,0.4455,-0.3575
3.46,0.0197,0.0094,9.818,0.3534,0.4501,-0.1363
3.48,-0.0301,0.005,9.804,0.487,-0.6463,0.1832
3.5,0.0341,-0.0492,9.815,-0.1814,0.1255,-0.5045
3.52,-0.0056,-0.0058,9.7824,-0.0169,-0.1329,0.1068
3.54,-0.0335,-0.0202,9.7966,0.8464,-0.2386,-0.1462
3.56,0.0121,0.0133,9.8402,-0.344,0.3696,0.6069
3.58,0.0112,-0.0361,9.7872,-0.5801,-0.5322,0.0651
3.6,-0.0172,0.0117,9.7875,0.9686,-0.4705,0.0442
3.62,-0.0032,0.0391,9.7867,-0.6311,-0.2752,-0.2615
3.64,0.0427,-0.0032,9.7814,0.1064,-0.2652,0.3523
3.66,-0.0563,-0.0287,9.8029,-0.9306,-0.0675,0.5481
3.68,0.0399,-0.0208,9.8463,-0.2533,-0.0733,0.1865
3.7,0.0226,0.039,9.7316,0.3336,-0.1241,-0.1654
3.72,0.0543,-0.0134,9.7619,0.2319,0.0714,-0.5494
3.74,0.0103,0.0441,9.8253,-0.6665,-0.1974,-0.432
3.76,0.0478,0.0635,9.7811,0.1166,-0.1905,0.1089
3.78,-0.0089,0.0362,9.8066,-0.5744,0.5105,0.2784
3.8,0.036,-0.0205,9.8183,0.7208,0.5752,0.6473
3.82,-0.0604,-0.0177,9.8072,0.0765,0.1315,-0.6576
3.84,0.029,-0.0557,9.7764,0.0594,0.2359,-0.329
3.86,-0.0269,-0.0004,9.7981,0.1672,0.493,-0.2944
3.88,0.0526,-0.0228,9.8221,0.2207,0.1714,0.2409
3.9,0.0129,-0.0526,9.7925,-0.4133,-0.1748,0.425
3.92,0.0173,0.0544,9.8371,-0.0099,-0.0805,-0.2997
3.94,0.0625,-0.0059,9.7646,0.0621,0.1609,-0.2713
3.96,0.0088,0.037,9.8026,-0.6344,0.6039,-0.0161
3.98,0.0335,0.0694,9.7803,0.6111,0.5413,0.1027
4.0,0.0393,0.0522,9.8181,0.1191,-0.4344,0.4916
4.02,0.0146,-0.0071,9.8429,0.5095,0.5162,-0.1632
4.04,0.0254,-0.023,9.8406,0.1305,-0.0954,-0.2386
4.06,-0.006,-0.0047,9.8542,0.6243,0.4627,0.5528
4.08,-0.0165,0.041,9.8127,0.6293,0.1709,-0.5129
4.1,-0.0226,0.0152,9.8,0.265,-1.8949,0.7316
4.12,-0.0104,0.0331,9.7911,0.4811,-0.4843,0.2545
4.14,0.0046,0.0045,9.7907,-0.0946,0.298,0.1417
4.16,0.0375,-0.0528,9.8107,-0.688,0.2894,0.1169
4.18,-0.0325,-0.04,9.7993,0.5416,-0.2532,0.5138
4.2,-0.0334,0.0242,9.8292,-0.2021,-0.1893,-0.6267
4.22,-0.0241,0.0264,9.8559,-0.8145,-0.1453,1.0217
4.24,0.0369,0.0483,9.8466,-0.1235,-0.5689,-0.7607
4.26,0.0097,-0.0192,9.7869,0.5304,0.3554,-0.4271
4.28,0.0515,0.046,9.7426,-0.116,-0.6701,0.8138
4.3,0.0087,-0.0193,9.8041,-0.9033,0.7393,-0.2088
4.32,0.0243,-0.0158,9.7676,-0.0351,-0.9127,0.6014
4.34,0.0624,0.0332,9.7806,-1.1071,0.0873,-0.2309
4.36,0.0149,0.0438,9.8035,0.2645,-0.8142,0.6303
4.38,-0.0271,-0.0271,9.7666,-0.2611,0.272,0.2869
4.4,-0.0007,-0.0174,9.8517,-0.1228,-0.3735,0.094
4.42,-0.0024,-0.0212,9.7979,0.25,-0.6528,0.5236
4.44,0.0046,0.067,9.8188,0.1437,0.0867,-0.4882
4.46,0.0553,-0.0527,9.8005,0.2898,0.2837,-0.1223
4.48,0.0613,-0.0096,9.8205,0.2676,0.3281,-0.511
4.5,0.0487,0.0237,9.7522,0.4195,-0.3815,0.1463
4.52,0.0579,0.0305,9.8046,0.5759,0.4295,0.1896
4.54,0.02,0.0053,9.8429,0.3322,0.0145,0.2982
4.56,0.0136,0.0105,9.8231,0.1836,0.166,0.2379
4.58,-0.001,0.0127,9.7587,-0.0526,-0.3275,0.2035
4.6,0.0214,-0.005,9.7409,-0.6827,-0.3035,-0.3902
4.62,0.0423,0.0237,9.8139,-0.4804,-0.0289,-0.3859
4.64,-0.0309,0.0046,9.8066,-0.171,-1.0897,0.5079
4.66,0.0032,0.0001,9.7636,-0.2731,-0.1255,0.0781
4.68,0.0005,0.0337,9.8169,-0.3264,0.1396,0.741
4.7,0.0412,0.0493,9.7848,-0.7351,-0.0223,0.4233
4.72,-0.0019,0.0382,9.8159,0.0686,-0.1521,-0.5954
4.74,0.0149,0.0451,9.7682,0.7186,0.1853,-0.4975
4.76,0.0554,-0.0104,9.8102,-0.7198,0.034,0.2099
4.78,0.0497,-0.0974,9.8006,-0.6468,-0.1053,-0.1872
4.8,0.0617,0.0252,9.7993,-0.0826,-0.5007,0.3023
4.82,-0.0228,-0.0161,9.8301,0.0273,0.3316,0.2425
4.84,0.0068,0.0405,9.7937,-0.3833,0.6566,0.6233
4.86,0.0343,-0.0089,9.8255,0.0067,-0.7224,0.3016
4.88,0.0061,-0.0379,9.7861,-0.0301,-0.012,0.0572
4.9,0.0492,-0.0517,9.8149,0.8551,-0.2447,0.2136
4.92,-0.0222,-0.0006,9.7956,-0.6352,0.4446,0.2034
4.94,-0.057,0.0198,9.8052,0.1864,-0.4217,0.8292
4.96,-0.0136,0.0146,9.8016,-0.4281,0.2942,0.0388
4.98,0.0089,0.0046,9.8138,-0.2011,0.3173,-0.1591
5.0,0.023,0.0139,9.7746,-0.0589,-0.1743,-0.4978
5.02,0.0204,0.0016,9.8278,-0.9303,-0.5582,0.1334
5.04,-0.0606,0.0026,9.8049,-0.3103,-0.3323,0.389
5.06,0.0508,-0.0348,9.8057,0.2487,0.6541,-0.3317
5.08,0.0103,0.0004,9.7857,0.3911,0.0807,0.5639
5.1,-0.0286,-0.009,9.8117,0.492,-0.0468,0.6709
5.12,-0.0588,0.0163,9.7617,0.2643,-0.1626,0.0557
5.14,-0.0215,0.0139,9.782,1.1076,0.6369,-0.7726
5.16,0.0041,-0.0315,9.7782,-0.7206,0.3929,-0.4768
5.18,-0.0284,0.0038,9.8122,0.3091,-0.4572,-0.2015
5.2,0.0155,-0.0424,9.789,0.7262,-1.3988,0.0009
5.22,0.0193,-0.0009,9.8139,-0.4169,-0.1191,0.4846
5.24,0.0158,0.0068,9.8288,-0.3842,0.3091,-0.7299
5.26,-0.0982,-0.0236,9.7726,0.6421,0.1674,-0.1967
5.28,0.0281,0.0128,9.8406,-0.8567,-0.4193,0.4061
5.3,0.0309,-0.0345,9.7993,0.1291,0.449,0.2878
5.32,0.0226,-0.0014,9.8005,0.5121,-0.2047,0.6389
5.34,-0.041,0.0164,9.7659,-0.0651,0.2867,0.3228
5.36,-0.0348,-0.0116,9.7786,1.0199,-0.3573,-0.6104
5.38,-0.0492,-0.0198,9.8081,0.7594,-0.4558,-0.0658
5.4,-0.0637,0.0288,9.7858,0.4603,-0.9246,-0.5196
5.42,0.0315,-0.0136,9.7953,0.1923,0.3462,0.3033
5.44,-0.0223,-0.0023,9.813,-0.5375,-0.514,0.1607
5.46,-0.043,-0.0192,9.8107,-0.3385,-0.8573,-0.2968
5.48,-0.0026,0.0168,9.7944,0.0628,-0.0242,-0.6743
5.5,-0.0581,0.0154,9.862,0.6182,0.087,-1.1917
5.52,0.0106,0.0266,9.7959,0.1562,0.1363,-0.394
5.54,0.0257,-0.009,9.8183,0.292,0.0865,0.6035
5.56,-0.0158,-0.0097,9.8315,0.5421,0.344,-0.1315
5.58,-0.056,0.0364,9.8307,-0.9649,0.6239,-0.8498
5.6,-0.0806,0.0603,9.809,0.3579,0.4376,-0.2007
5.62,-0.0272,0.0132,9.7932,0.5223,-0.6751,0.4367
5.64,-0.0293,-0.0076,9.7914,-0.0137,-0.034,-0.1232
5.66,-0.0058,-0.0582,9.8071,0.6126,0.2132,-0.3195
5.68,-0.0703,-0.0103,9.8036,0.2,0.6865,-0.1342
5.7,-0.016,-0.0362,9.8251,0.0186,-0.2538,0.2793
5.72,0.014,0.0423,9.7797,1.2103,-1.338,0.6774
5.74,0.0084,-0.0052,9.819,-0.5428,0.7811,-0.7589
5.76,-0.0604,-0.0134,9.7863,0.1655,-0.0634,-0.1057
5.78,-0.0327,-0.0725,9.8192,0.3303,0.5096,0.2083
5.8,-0.0091,-0.0077,9.863,-0.2104,-1.2005,-0.3815
5.82,0.0452,-0.0345,9.8159,-0.7267,-0.5474,-0.1123
5.84,-0.0541,-0.0053,9.8365,-0.2926,0.2602,0.684
5.86,0.0279,0.0249,9.8211,-0.6082,0.0903,-0.2363
5.88,-0.0059,-0.031,9.7975,-0.432,-0.1644,0.4012
5.9,-0.0149,0.0505,9.7813,-0.1547,-0.0973,0.0143
5.92,-0.0121,0.0041,9.7887,-0.0732,-0.1136,-0.2092
5.94,0.0254,0.006,9.8056,-0.7251,0.8011,0.0146
5.96,-0.0446,0.0017,9.8188,-0.0607,-0.0934,0.4638
5.98,0.0197,0.0456,9.8558,0.4182,-0.0619,0.4113
6.0,-0.0005,-0.0187,9.8072,-0.8682,-0.314,0.3217
6.02,-0.0326,-0.0296,9.8025,0.9217,0.1011,0.6343
6.04,0.0164,0.0127,9.8122,-0.4134,-1.1395,-0.2515
6.06,-0.0163,0.0046,9.8391,-0.1204,-1.077,0.0357
6.08,-0.0257,-0.0194,9.7749,-0.1564,-0.797,0.3186
6.1,0.0003,-0.0204,9.8243,-0.0401,0.3823,0.3451
6.12,-0.0221,0.044,9.7886,0.6525,-0.4025,-0.3061
6.14,-0.0093,0.0051,9.8308,0.331,-0.7492,-0.4915
6.16,-0.0322,0.0017,9.7928,-0.3124,-0.1386,-0.0534
6.18,-0.0058,-0.0142,9.8062,-0.4602,0.0575,0.6234
6.2,0.0168,-0.0062,9.8298,0.0093,-0.1994,-0.2123
6.22,-0.042,0.004,9.8389,0.9309,-0.7177,0.8603
6.24,-0.034,-0.0213,9.8043,0.2318,-0.3109,0.1183
6.26,-0.0396,-0.0198,9.807,0.2939,0.8736,0.0856
6.28,-0.0489,0.0608,9.7939,0.9363,1.2842,-0.0328
6.3,0.009,-0.0129,9.8274,-0.8689,-0.2548,-0.1168
6.32,0.0156,0.0297,9.7788,-0.0675,-0.1095,-0.2345
6.34,-0.0539,-0.0608,9.8644,-0.2227,-0.0514,-0.2903
6.36,0.0175,-0.0147,9.817,-0.5544,0.2846,-0.2088
6.38,-0.001,0.0239,9.7943,-0.3332,-0.3565,0.8032
6.4,-0.0275,-0.0021,9.834,-0.0776,-0.4489,0.0533
6.42,-0.0482,0.0263,9.7913,0.9919,0.4828,-0.4296
6.44,0.0127,-0.0356,9.7718,-0.3677,0.1695,0.9077
6.46,-0.0334,-0.0343,9.8299,0.3998,0.8371,-0.7679
6.48,-0.0405,-0.0342,9.8069,-0.0285,0.7095,0.2491
6.5,-0.0402,0.0037,9.8458,0.7377,-0.6383,0.3446
6.52,0.0503,-0.011,9.8237,0.2769,0.0737,0.0853
6.54,-0.0394,0.0212,9.8499,0.2766,-0.0794,-0.3098
6.56,0.0352,-0.0712,9.8421,-0.3942,0.2218,0.2389
6.58,0.0106,-0.0051,9.7652,0.2295,-0.8741,0.5354
6.6,-0.0066,0.076,9.7946,0.5739,0.2427,-0.7985
6.62,-0.026,-0.0272,9.8341,0.4881,0.2364,1.0949
6.64,-0.0677,-0.0558,9.8036,0.8894,0.3381,0.4481
6.66,-0.0372,-0.0432,9.8451,-0.1671,-0.2302,0.3727
6.68,-0.0393,0.0234,9.8204,-0.8685,0.4053,0.1847
6.7,0.0052,-0.0046,9.823,0.4636,0.7023,-0.3429
6.72,-0.0489,0.0114,9.807,0.0419,-0.0526,-0.2184
6.74,-0.0335,-0.0151,9.7997,-0.6804,-0.8756,0.3172
6.76,-0.0465,0.0332,9.797,-0.3343,-0.5527,0.1387
6.78,0.0299,-0.0393,9.7948,0.667,1.066,0.292
6.8,0.0151,0.0203,9.7864,0.3408,0.4845,0.4907
6.82,0.0353,0.012,9.8535,-0.2802,-0.0719,0.5171
6.84,-0.012,-0.0178,9.8139,0.6491,-0.3435,-0.1684
6.86,0.037,-0.0391,9.7864,-0.8827,0.1955,-0.5909
6.88,0.0232,0.03,9.8022,-0.4234,0.3,0.7101
6.9,0.0148,-0.0121,9.8109,0.0981,-0.4002,0.0376
6.92,0.0098,0.0641,9.8065,-0.1453,0.5223,-0.0375
6.94,0.025,0.0112,9.8024,0.5474,-0.0156,0.5666
6.96,-0.0084,-0.0047,9.8161,-0.2655,0.024,0.3687
6.98,0.0059,0.0104,9.828,0.1127,0.1515,0.1325
7.0,0.0581,0.0083,9.7944,0.3509,-0.574,-0.1006
7.02,0.0373,-0.0707,9.8008,1.7311,0.2716,0.0741
7.04,0.0568,-0.0338,9.7826,-1.0778,-0.1506,0.0955
7.06,-0.001,-0.0097,9.829,-0.908,0.2464,0.2141
7.08,0.0166,-0.0077,9.78,0.0518,-0.826,-0.3986
7.1,0.036,-0.0438,9.8508,-0.7102,-0.4815,0.5351
7.12,0.0117,-0.0256,9.8662,-0.281,0.6831,-0.0897
7.14,0.0258,-0.0103,9.7924,-0.9236,-0.2293,0.4309
7.16,0.0663,0.048,9.7935,0.1495,0.6832,-0.1448
7.18,0.0329,0.0178,9.8112,0.9568,-0.7492,0.2794
7.2,0.0559,0.0438,9.7859,-0.8936,-0.5809,-0.704
7.22,0.0126,-0.0216,9.8445,0.7481,0.535,0.0021
7.24,0.0255,0.0039,9.8223,0.3575,-0.4559,-0.1508
7.26,0.034,-0.0415,9.7862,0.2615,0.3065,-0.2383
7.28,0.0002,-0.0424,9.7612,0.5172,-0.8263,-0.0216
7.3,0.0065,-0.008,9.828,0.1941,0.022,-0.6496
7.32,0.0474,-0.0395,9.7867,-0.3386,-0.5873,-0.0398
7.34,0.052,0.0233,9.8535,0.2134,0.5798,-0.356
7.36,0.0024,0.0147,9.7847,-0.0737,-0.7832,-0.0325
7.38,0.0182,-0.0129,9.8196,-0.4257,-0.5908,0.258
7.4,0.0618,-0.0019,9.797,-0.4154,0.8424,-0.0286
7.42,0.0025,-0.004,9.7798,0.0815,1.2173,0.0738
7.44,0.016,-0.0171,9.8457,0.008,-0.7052,-0.199
7.46,0.0432,-0.0086,9.8193,0.2702,0.1273,0.4049
7.48,0.0559,0.004,9.8044,-0.7807,0.6074,0.0888
7.5,0.0489,0.0093,9.7613,0.3613,0.0426,-0.5287
7.52,0.0488,-0.0021,9.7955,-0.3583,-0.1339,0.493
7.54,-0.0338,0.0333,9.8082,0.5713,-1.1032,-0.3773
7.56,-0.0063,0.0249,9.789,0.2383,0.3073,-0.2672
7.58,0.006,0.0007,9.7892,0.2124,0.7133,0.1675
7.6,0.0354,-0.0534,9.8156,0.4101,0.1935,-0.0775
7.62,0.0596,0.0127,9.7791,0.2496,0.4827,0.5079
7.64,0.0437,0.0276,9.8357,-0.1273,0.0183,-0.2771
7.66,0.0251,-0.0464,9.7915,0.0417,-0.1013,-0.1641
7.68,-0.0194,0.0012,9.844,0.5496,0.1275,-0.1615
7.7,0.0115,0.0336,9.8378,0.804,0.4583,0.464
7.72,0.0371,0.0222,9.8194,-0.4125,0.1706,0.0205
7.74,-0.0039,0.0335,9.8878,0.3107,-0.1391,-0.5817
7.76,-0.0149,-0.0195,9.8224,0.9359,-0.4508,0.257
7.78,-0.0167,-0.0044,9.8058,0.2105,0.0742,0.2622
7.8,0.0235,-0.0235,9.7676,-0.1407,0.1147,0.036
7.82,0.0352,0.0102,9.8218,0.3579,1.3465,-0.4514
7.84,-0.0648,0.0042,9.8053,0.5282,-1.1622,-0.4243
7.86,-0.0625,0.0476,9.7888,0.2565,-0.5841,-0.0353
7.88,0.0198,0.0129,9.7908,-0.3,0.1776,0.1838
7.9,0.022,-0.0418,9.8241,0.1032,0.0003,0.2108
7.92,0.0337,-0.0149,9.7813,0.5932,-0.926,0.2325
7.94,0.0319,-0.0055,9.8311,0.228,-0.1372,-0.0466
7.96,0.0077,0.0677,9.8189,-0.2428,0.6699,-0.631
7.98,0.0237,0.0009,9.8039,0.0857,-0.2382,-0.0518
8.0,0.0286,0.0357,9.7784,0.0486,0.077,-0.4573
8.02,-0.0188,-0.0261,9.7979,0.2222,0.2387,0.1095
8.04,-0.01,0.0168,9.7667,-0.2915,0.2661,-0.2647
8.06,0.0193,0.0139,9.8159,-0.3692,-0.3575,-0.1036
8.08,-0.0196,-0.0082,9.807,-0.3693,-0.5405,0.1067
8.1,0.0058,0.0083,9.8546,-0.3341,0.7646,-0.6393
8.12,0.0247,0.0034,9.7948,-0.6373,0.428,-0.8315
8.14,0.0168,-0.0397,9.8103,0.6529,0.2109,0.0068
8.16,0.0005,0.0691,9.822,-0.9877,-0.7519,-0.2732
8.18,0.0325,-0.0481,9.8216,-0.6517,-0.0994,-0.771
8.2,-0.0267,0.0304,9.7675,-0.6114,-0.0762,-0.4058
8.22,-0.045,-0.0167,9.7938,1.2765,0.0373,0.159
8.24,0.0455,0.0278,9.7979,-0.0238,0.616,-0.6122
8.26,-0.0146,-0.0193,9.8317,-0.1447,0.6691,0.3208
8.28,0.0256,0.0355,9.7787,0.2256,0.4322,0.0048
8.3,0.0288,0.0068,9.8513,0.0071,0.2386,-0.6996
8.32,0.0275,-0.0189,9.7969,0.8842,-0.3342,0.0709
8.34,0.0137,0.0019,9.8185,-0.4351,0.3368,-0.17
8.36,-0.0726,0.0119,9.8228,0.3648,0.6693,-0.0789
8.38,0.0066,-0.032,9.808,0.3525,0.7379,-0.7335
8.4,-0.0066,0.0414,9.7607,-0.5467,-0.0426,-0.0055
8.42,0.0179,-0.008,9.8241,0.2236,-0.0255,-1.4743
8.44,-0.0087,0.0187,9.766,-0.9382,0.8545,0.3259
8.46,0.0134,0.0019,9.8116,-0.5466,0.0187,0.1463
8.48,-0.011,-0.0073,9.7494,0.0846,0.0409,0.6075
8.5,0.0006,0.0016,9.7851,-0.1076,-0.2527,0.3555
8.52,0.015,0.0148,9.7903,0.3011,-0.0428,0.1383
8.54,-0.0761,0.0267,9.7826,0.3975,0.3488,-0.2727
8.56,-0.0345,-0.0299,9.7902,-0.047,-0.0028,0.1516
8.58,0.0344,0.0033,9.8002,0.133,1.1245,-0.0667
8.6,-0.0421,0.0092,9.8106,-0.542,0.809,-0.2117
8.62,-0.0043,0.0338,9.7908,-0.1934,0.1093,0.2541
8.64,-0.0027,-0.0005,9.7981,-0.0421,0.4053,-0.286
8.66,-0.0568,-0.0226,9.8487,-1.3641,-0.0192,0.0861
8.68,0.0087,-0.0112,9.7937,1.1584,0.1664,-0.3353
8.7,-0.0401,-0.0178,9.8126,0.3608,-0.2232,-0.2892
8.72,-0.0415,-0.0121,9.8031,-0.4366,0.3352,-0.1059
8.74,0.0203,-0.0031,9.7903,-0.8351,-0.0684,-0.3741
8.76,0.0367,-0.0339,9.811,-0.4312,-0.2259,-0.4993
8.78,0.003,0.0381,9.8272,-0.0437,-0.1834,0.1279
8.8,-0.0176,-0.0341,9.819,-0.3193,0.349,-0.0097
8.82,-0.0391,-0.0106,9.7604,0.4857,-0.0844,0.4629
8.84,-0.0281,-0.068,9.8238,0.781,-0.4306,-0.1368
8.86,-0.0752,-0.0097,9.8283,-0.0706,-0.7229,-0.5551
8.88,-0.0333,-0.025,9.7995,0.0638,-0.4625,-1.1712
8.9,0.0057,-0.0061,9.8139,0.2455,0.1058,-0.8893
8.92,-0.0724,0.0448,9.7884,0.2019,-0.2152,-0.0672
8.94,0.0208,-0.0402,9.7974,0.0604,0.1864,-0.1386
8.96,-0.0141,0.005,9.7992,-0.6295,-0.8883,-0.6058
8.98,-0.0349,0.017,9.8045,0.3238,-0.643,-0.338
9.0,-0.0322,0.0045,9.7904,1.3178,-0.2877,-0.3002
9.02,0.0418,0.0019,9.7951,-0.215,-0.3001,-0.3858
9.04,-0.0121,-0.0116,9.7858,-0.1278,0.6338,-0.1516
9.06,-0.0042,0.0215,9.7712,-0.5961,0.1034,0.0296
9.08,0.0067,-0.0137,9.8174,0.0518,1.1042,0.4871
9.1,-0.0011,-0.0404,9.81,-0.2084,-0.0907,0.1388
9.12,0.0161,0.017,9.8168,0.3613,-0.0128,0.687
9.14,-0.0457,-0.0252,9.8169,0.1645,0.0185,0.1231
9.16,-0.0223,-0.0359,9.8008,-0.2712,0.449,-0.471
9.18,-0.0477,0.0276,9.8458,0.2389,1.0516,-0.2727
9.2,0.005,-0.0531,9.7936,0.0454,0.178,-0.0647
9.22,-0.0219,0.0233,9.8366,0.5306,0.5258,-0.1546
9.24,-0.0491,-0.0304,9.7641,0.5608,-0.2842,0.2652
9.26,-0.0554,0.02,9.8168,0.1377,0.6283,-0.0275
9.28,-0.0151,-0.0043,9.8124,0.2009,-0.0718,-0.3986
9.3,-0.0274,0.0334,9.8425,0.2723,0.351,-0.0449
9.32,-0.0,0.0035,9.8091,0.248,-0.475,-0.3936
9.34,-0.0362,0.009,9.8393,-0.3562,0.8874,0.3131
9.36,-0.0235,0.0021,9.8107,0.357,-0.1655,-0.07
9.38,-0.0378,-0.0094,9.8198,0.4145,0.1475,-0.4798
9.4,0.0139,-0.0281,9.7875,0.3169,0.3928,0.2335
9.42,-0.0444,-0.02,9.807,0.9648,-0.8805,-0.319
9.44,-0.0076,0.0166,9.8237,0.6339,0.0282,-0.3083
9.46,-0.0268,-0.0222,9.8536,-0.2157,-0.01,-0.4235
9.48,-0.0274,-0.0359,9.7594,-0.0465,0.1465,-0.1049
9.5,-0.0118,-0.0208,9.8285,0.1107,-0.4785,-0.2969
9.52,-0.0309,0.0319,9.8294,0.2299,-0.1974,-0.5132
9.54,-0.04,-0.039,9.8172,-1.0874,-0.0959,-0.2292
9.56,-0.0488,0.004,9.7982,-0.1953,-0.1407,0.1426
9.58,0.0132,0.0387,9.8074,0.4946,0.0278,0.2418
9.6,-0.067,0.0327,9.8345,-0.1044,0.2779,0.0316
9.62,-0.0244,0.0225,9.8072,-0.0127,-0.3302,-0.2559
9.64,-0.041,-0.0265,9.7673,0.0554,-0.2362,-1.0432
9.66,-0.0062,-0.0189,9.8433,-1.1993,0.262,-0.2784
9.68,-0.0333,0.0318,9.8013,-0.2204,-0.0747,-0.3113
9.7,-0.0013,0.0056,9.7765,-1.3223,0.5371,-0.1012
9.72,-0.0028,0.036,9.824,0.3762,0.5381,-0.1168
9.74,-0.0221,0.0059,9.789,0.4783,-0.0365,-0.2347
9.76,0.0052,0.0517,9.7872,-0.1265,0.1229,-0.0277
9.78,0.036,-0.015,9.7967,-0.1419,-0.0123,0.5697
9.8,0.0142,0.0258,9.8564,-0.2285,0.1149,0.1705
9.82,0.028,-0.0294,9.7933,-0.0458,0.2547,0.3805
9.84,-0.0238,-0.0829,9.8116,-0.4131,-0.1856,0.2073
9.86,-0.0086,0.0006,9.7742,-0.6483,-0.2587,-0.0678
9.88,-0.0599,0.0106,9.8443,0.3194,0.3686,0.4657
9.9,-0.0605,0.0268,9.7947,-0.3224,0.4472,0.541
9.92,-0.0156,0.0238,9.808,-0.0909,1.0022,-0.2221
9.94,0.0123,0.003,9.7997,0.5863,-0.0098,0.21
9.96,-0.0182,0.0079,9.8085,-0.0748,-1.4487,0.6529
9.98,0.014,0.0167,9.8502,0.1972,-0.037,-0.0054
10.0,0.0368,-0.0252,9.789,-0.934,-0.2118,-0.2042
10.02,-0.0517,0.0146,9.7473,-0.6321,0.0303,-0.2197
10.04,0.0087,-0.002,9.7702,-0.6262,-0.0891,-0.2737
10.06,-0.0545,0.0303,9.7879,0.2205,-0.7524,-0.2303
10.08,-0.0048,0.0213,9.822,-0.2979,-0.0679,0.3005
10.1,0.0317,-0.0105,9.792,0.1534,-0.1216,0.0222
10.12,-0.0193,-0.0072,9.8069,-0.6309,0.654,0.3794
10.14,0.0306,0.0172,9.8476,0.9419,0.1473,-0.2138
10.16,0.0217,0.0004,9.8294,0.2671,-0.0396,0.0697
10.18,-0.0352,-0.0346,9.7582,-0.9166,-0.699,0.3274
10.2,0.0096,-0.0152,9.8303,-0.6719,-0.5385,0.4447
10.22,0.0028,-0.0151,9.8185,-0.611,0.5647,0.1405
