time_s,Ax,Ay,Az,Gx,Gy,Gz
0.0,-0.0598,0.4691,9.7779,2.2432,9.536,6.0583
0.02,0.0887,0.59,9.8828,6.1979,6.4567,5.0745
0.04,0.1007,0.5628,9.9983,2.3342,6.9511,3.714
0.06,0.103,0.4631,10.1014,3.9265,6.7137,4.2763
0.08,0.1122,0.6726,10.0093,8.5879,7.9348,6.6653
0.1,0.0743,0.6675,10.229,12.1117,6.73,5.6502
0.12,0.0554,0.7513,10.27,8.9815,7.3803,2.1652
0.14,0.1205,0.7451,10.29,14.2557,9.5742,3.4653
0.16,0.1398,0.7915,10.4066,11.851,6.6945,3.2864
0.18,0.1067,0.8283,10.3442,13.9709,7.4115,0.7737
0.2,0.1473,0.7346,10.31,12.5042,8.4481,2.4485
0.22,0.2559,0.7594,10.4291,12.845,8.1762,1.035
0.24,0.1845,0.7443,10.4352,9.4953,9.6634,-1.6302
0.26,0.1451,0.8816,10.322,8.0025,7.7323,-1.3464
0.28,0.1964,0.7493,10.2819,11.4848,4.6586,-0.7593
0.3,0.1416,0.7008,10.2317,10.4097,8.2865,-4.7298
0.32,0.1646,0.6574,10.1454,5.5215,8.4941,-0.8693
0.34,0.0972,0.6025,10.1487,9.4247,8.6184,-4.3462
0.36,0.1116,0.521,10.0039,11.9803,7.2557,-5.8164
0.38,0.1073,0.6589,10.0029,5.3076,7.0594,-3.803
0.4,-0.0189,0.6728,9.9184,1.4585,8.0954,-4.0916
0.42,-0.0942,0.481,9.8101,2.5314,9.2883,-4.6115
0.44,-0.0312,0.5211,9.944,2.0505,11.3062,-4.3981
0.46,-0.0984,0.4753,9.9699,-4.1568,4.9312,-2.1677
0.48,-0.1859,0.3977,10.017,-1.8215,11.0144,-3.0779
0.5,-0.1153,0.5454,10.0846,-2.8791,6.3769,-4.7067
0.52,-0.0571,0.424,10.2363,-9.2292,9.2702,-3.757
0.54,-0.1288,0.5043,10.3269,-9.8673,6.3424,-0.9825
0.56,-0.1937,0.3823,10.2202,-11.0963,11.0881,-1.6858
0.58,-0.1257,0.4086,10.3539,-8.3916,6.0714,-1.7629
0.6,-0.2755,0.389,10.4018,-8.3944,8.6636,-1.4623
0.62,0.0126,0.2425,10.3825,-11.931,10.4898,-0.3267
0.64,-0.1393,0.3514,10.3457,-17.8285,8.8737,2.7106
0.66,-0.358,0.4444,10.3182,-10.8142,7.7782,2.4217
0.68,-0.1571,0.4086,10.2455,-12.5013,4.4045,2.5759
0.7,-0.1846,0.3858,10.2659,-13.5902,9.8563,4.5546
0.72,-0.2637,0.35,10.3053,-10.5738,6.4894,3.3564
0.74,-0.1233,0.3944,10.085,-9.7226,6.0223,4.2699
0.76,-0.0917,0.3584,10.0153,-7.21,7.7856,4.7211
0.78,-0.0962,0.4746,10.0908,-1.3613,8.1884,4.7826
0.8,-0.1055,0.5866,9.8796,0.9504,9.4333,5.3252
0.82,-0.0073,0.6145,9.8807,1.7357,4.7618,1.9967
0.84,0.0926,0.6107,9.748,5.7318,6.2049,3.5094
0.86,0.1388,0.5932,9.8981,1.8443,7.4846,1.9219
0.88,0.0788,0.3772,10.0836,0.6466,9.543,3.2541
0.9,0.0148,0.6671,10.0505,4.7342,10.1564,3.9438
0.92,0.1376,0.5477,10.1064,3.812,7.3936,6.0664
0.94,0.1694,0.6426,10.3397,11.3065,10.1875,2.3357
0.96,0.1931,0.7275,10.2695,7.7268,7.8871,1.1221
0.98,0.1725,0.8375,10.2687,10.0122,9.7776,4.8142
1.0,0.1201,0.6842,10.3223,6.6453,10.3136,1.0174
1.02,0.2031,0.7133,10.433,13.064,10.1876,0.8841
1.04,0.2901,0.7134,10.2401,12.07,10.8553,-0.4366
1.06,0.2742,0.6955,10.3202,8.5208,6.6712,-1.4512
1.08,0.3434,0.6877,10.3444,6.4299,7.6075,-0.9822
1.1,0.1598,0.6273,10.3478,7.1811,9.8214,-1.6908
1.12,0.1467,0.6427,10.278,7.5664,9.7962,-0.3146
1.14,0.1204,0.7716,10.173,4.8448,7.9158,-2.832
1.16,0.189,0.6318,10.1399,7.2203,9.7347,-4.1064
1.18,0.17,0.72,10.0907,5.253,11.3721,-4.48
1.2,-0.0058,0.6207,10.0391,6.15,6.3627,-3.5577
1.22,-0.0858,0.7131,10.0722,1.0914,6.2341,-4.1631
1.24,0.0737,0.6345,9.9332,1.5456,9.89,-5.7319
1.26,0.0893,0.5669,9.8103,0.0717,5.2765,-3.467
1.28,-0.0826,0.4319,9.9869,-7.4383,9.9965,-2.2079
1.3,-0.0668,0.5065,10.0274,-7.5764,9.5683,-4.886
1.32,-0.0741,0.6097,10.0173,-4.7379,7.2594,-4.2458
1.34,-0.2056,0.4551,10.1187,-5.2662,7.7417,-4.4852
1.36,-0.1831,0.5113,10.1892,-6.6482,7.5692,-2.7856
1.38,-0.0519,0.3888,10.2497,-3.4544,6.8005,-2.0963
1.4,-0.2969,0.5094,10.2785,-10.9354,8.6385,-1.5641
1.42,-0.2219,0.4581,10.3026,-13.2699,8.0069,0.0904
1.44,-0.2449,0.3501,10.2814,-13.6927,9.6232,-0.7379
1.46,-0.2552,0.4183,10.4284,-9.3775,6.7619,1.016
1.48,-0.1988,0.3468,10.3584,-11.1637,6.5615,-0.1686
1.5,-0.1699,0.4255,10.3807,-9.8862,9.7971,2.5118
1.52,-0.3117,0.4751,10.2704,-12.639,6.8997,1.4435
1.54,-0.3109,0.3417,10.2361,-11.4148,9.0415,1.949
1.56,-0.0519,0.4969,10.0576,-7.0653,7.1703,2.926
1.58,-0.2595,0.4391,10.1312,-9.6664,7.2752,1.5999
1.6,-0.0536,0.4587,10.1195,-5.1574,7.8986,3.4304
1.62,-0.1213,0.4586,10.0149,-3.1887,7.8418,6.0301
1.64,-0.0898,0.4917,9.9184,1.0079,9.677,3.6737
1.66,-0.1174,0.558,9.7588,-0.9506,7.5503,2.4713
1.68,-0.0686,0.6478,9.8428,-1.7064,5.7983,4.183
1.7,0.0101,0.708,9.9267,2.8597,7.7806,4.4697
1.72,0.0052,0.5319,10.037,5.4926,6.6922,0.9963
1.74,0.0963,0.5148,10.1509,6.6832,7.4434,2.7155
1.76,0.0704,0.6842,10.1431,5.023,12.0283,4.2927
1.78,0.237,0.66,10.3487,6.6031,6.2014,1.3408
1.8,0.243,0.6597,10.2223,9.0569,8.6125,1.66
1.82,0.2234,0.7719,10.3234,13.8793,8.2075,4.6196
1.84,0.2587,0.7562,10.3204,9.4337,8.8388,0.691
1.86,0.1887,0.5634,10.4098,11.7702,7.7219,-0.5339
1.88,0.24,0.5858,10.4533,13.4193,7.5747,1.1255
1.9,0.0403,0.6974,10.3693,3.8537,8.8363,-2.3062
1.92,0.1971,0.6201,10.37,10.2276,10.6166,0.6451
1.94,0.2012,0.7716,10.3336,11.1591,5.2341,-1.4146
1.96,0.1959,0.6589,10.2501,8.8653,5.4534,-0.6057
1.98,0.1824,0.5922,10.2197,6.6819,8.794,-0.6624
2.0,0.2189,0.6397,10.2306,6.1854,9.3427,-3.4249
2.02,0.0807,0.5394,10.1173,6.6521,9.5549,-1.1052
2.04,0.0221,0.5179,10.0068,1.7761,10.6475,-2.4456
2.06,0.0744,0.5317,9.8445,-1.0033,11.7118,-4.899
2.08,0.0356,0.5776,9.8427,2.6219,7.4037,-4.0194
2.1,-0.0405,0.39,9.8573,0.695,5.8341,-2.598
2.12,-0.0536,0.3604,10.0141,-3.393,7.3512,-4.5654
2.14,-0.0736,0.5066,9.9971,-1.3367,5.6611,-1.5252
2.16,-0.0997,0.6035,10.2313,-10.467,10.7528,-3.4356
2.18,-0.0664,0.4521,10.0961,-8.6474,4.1882,-2.4991
2.2,-0.126,0.4888,10.2176,-9.274,6.1927,-1.1779
2.22,0.0081,0.2773,10.29,-8.0611,9.9285,-2.5275
2.24,-0.2783,0.4051,10.4136,-9.4403,4.116,-2.5999
2.26,-0.2867,0.3141,10.3135,-7.4334,7.4842,-1.1582
2.28,-0.121,0.3103,10.2066,-11.4907,9.7542,-2.909
2.3,-0.1949,0.3967,10.2893,-14.8321,9.9836,1.7534
2.32,-0.0907,0.4041,10.3931,-11.6071,9.4386,-0.1095
2.34,-0.0853,0.4971,10.3855,-10.961,8.9774,0.2507
2.36,-0.2158,0.5159,10.1694,-14.6546,9.9541,2.3366
2.38,-0.226,0.4146,10.1413,-12.1379,7.9747,0.1029
2.4,-0.1149,0.4891,10.2055,-6.4821,10.0061,3.0881
2.42,-0.147,0.3677,10.1975,-10.2707,9.3527,1.9443
2.44,-0.0225,0.3764,10.0528,-1.0303,7.5671,4.1101
2.46,-0.119,0.3784,10.0691,-9.4241,8.3839,4.2004
2.48,0.0155,0.4412,9.9782,1.1016,8.534,5.8176
2.5,-0.067,0.3891,9.8131,-1.9774,7.7733,3.2215
2.52,0.0154,0.6421,9.9232,3.273,6.9859,3.4404
2.54,0.0619,0.6399,9.9361,-0.4576,8.4414,3.9404
2.56,0.1152,0.6967,10.0845,4.6655,7.3603,2.849
2.58,0.0805,0.5738,10.0496,3.1301,5.1126,2.3217
2.6,0.1422,0.7102,10.2144,10.0912,5.9189,4.3699
2.62,0.0856,0.6758,10.1344,6.6414,7.4696,1.3367
2.64,0.1624,0.5376,10.2598,15.667,2.9302,1.0617
2.66,0.277,0.5663,10.1888,12.719,8.1627,1.9801
2.68,0.1815,0.7967,10.4146,11.7319,6.3668,-0.0119
2.7,0.2406,0.6639,10.424,12.9479,8.3893,0.9584
2.72,0.2713,0.6835,10.377,10.6883,11.0055,0.6897
2.74,0.2342,0.6685,10.3574,12.9536,6.8308,0.88
2.76,0.1092,0.6635,10.2559,11.9442,4.8357,-2.1907
2.78,0.1549,0.6296,10.2598,10.2763,5.5548,-1.2252
2.8,0.2634,0.8791,10.3448,7.6177,9.0481,-0.2865
2.82,0.2047,0.6967,10.2099,7.3091,8.9407,-1.8187
2.84,0.1782,0.6292,10.0964,6.6109,5.2686,-4.4915
2.86,0.1959,0.5405,10.1302,6.0205,9.3297,-2.9544
2.88,0.1086,0.6221,9.9943,2.5433,9.518,-3.9388
2.9,-0.0266,0.632,9.9665,2.1121,7.1349,-4.8052
2.92,-0.0463,0.3792,9.8058,-2.4901,7.1921,-0.7718
2.94,-0.0682,0.4201,9.9384,1.2278,7.053,-3.7515
2.96,0.0585,0.4283,9.8827,-5.3415,10.9932,-5.7716
2.98,-0.0693,0.5748,9.9192,-5.8333,6.1469,-1.9803
3.0,-0.1324,0.3178,10.091,-8.5005,8.2056,-5.2039
3.02,-0.1427,0.3717,10.119,-8.0695,10.8886,-2.001
3.04,-0.1099,0.5633,10.2085,-9.3617,7.8302,-4.6552
3.06,-0.0965,0.4257,10.1816,-12.4475,9.9357,-1.1992
3.08,-0.1565,0.3214,10.3017,-7.7058,7.3022,1.0011
3.1,-0.1956,0.3541,10.3156,-13.1398,8.0047,0.6843
3.12,-0.2855,0.2717,10.4423,-11.0761,7.2059,0.4016
3.14,-0.1579,0.3257,10.4866,-14.12,9.2316,0.4553
3.16,-0.149,0.2959,10.2676,-8.2863,7.228,0.021
3.18,-0.2708,0.3113,10.3128,-11.8778,8.0052,0.1748
3.2,-0.1719,0.3734,10.2668,-9.2211,6.1877,2.8595
3.22,-0.2394,0.4918,10.3103,-8.4602,6.5773,2.1275
3.24,-0.0716,0.4741,10.1095,-6.1083,8.0217,4.626
3.26,-0.1191,0.6239,10.128,-8.1552,9.0058,5.6583
3.28,-0.0174,0.5016,10.0827,-7.9758,9.303,4.8658
3.3,0.1412,0.6106,9.9405,-2.1549,5.8571,1.1272
3.32,-0.0064,0.3846,9.8105,-0.8938,10.4243,2.4685
3.34,0.0231,0.5951,9.7956,-0.8226,9.139,2.7088
3.36,0.0424,0.7556,9.8268,-1.2016,5.8676,5.7299
3.38,0.179,0.5593,10.0716,11.2371,10.052,6.2997
3.4,0.0205,0.6837,10.06,8.8736,9.9885,4.1146
3.42,0.0734,0.5854,10.1302,10.2062,5.1888,1.0069
3.44,0.338,0.7106,10.2008,5.8767,8.5006,2.979
3.46,0.1806,0.6817,10.4144,17.1588,10.3926,1.9672
3.48,0.2484,0.6887,10.2103,6.1191,10.5925,3.2975
3.5,0.0798,0.7067,10.3253,10.9468,7.9705,1.8053
3.52,0.371,0.769,10.3418,9.1892,7.0322,-1.5198
3.54,0.1857,0.5561,10.3921,11.2358,10.5445,0.4239
3.56,0.2269,0.8206,10.3372,12.3234,7.9013,0.2373
3.58,0.2104,0.7021,10.3896,8.3918,8.1302,-0.788
3.6,0.11,0.8004,10.3194,13.1872,5.8155,-1.9331
3.62,0.138,0.7469,10.3302,10.2238,9.8409,-2.521
3.64,0.1735,0.687,10.1609,8.5274,9.8276,-2.0354
3.66,0.0932,0.6276,10.1287,1.8528,4.9989,-2.7447
3.68,0.2122,0.6807,10.0583,5.7372,8.9958,-3.6245
3.7,0.1703,0.6653,10.0567,7.9867,8.8732,-4.6689
3.72,0.0457,0.4729,9.932,3.3636,11.1162,-2.0843
3.74,0.0249,0.5587,9.8487,4.7683,3.1517,-3.9637
3.76,-0.0356,0.572,9.8292,-3.6833,7.2137,-3.9859
3.78,0.001,0.5845,9.9267,-2.1191,6.9771,-4.9259
3.8,-0.0284,0.3725,10.0087,-3.9402,4.8317,-3.9824
3.82,-0.0069,0.498,10.0726,-7.2081,8.143,-4.5355
3.84,-0.1237,0.4783,10.0914,-12.5266,5.4642,-4.1958
3.86,-0.2564,0.3759,10.2557,-11.7463,10.807,-1.2042
3.88,-0.1033,0.3079,10.3465,-9.4258,7.5974,-2.9019
3.9,-0.1104,0.2772,10.2179,-9.6861,10.6587,-1.7791
3.92,-0.2629,0.2748,10.2921,-13.8585,3.9518,-0.0998
3.94,-0.2048,0.3295,10.2456,-14.8178,5.423,-2.427
3.96,-0.2042,0.452,10.3307,-16.4722,9.2538,1.3218
3.98,-0.2464,0.3299,10.2603,-12.6389,5.2307,-1.4356
4.0,-0.1108,0.2641,10.2156,-12.9598,8.7413,1.3696
4.02,-0.1697,0.3131,10.2897,-14.5675,4.374,2.342
4.04,-0.1206,0.5486,10.1887,-9.6617,5.0654,2.0791
4.06,-0.2242,0.4682,10.2108,-8.6295,7.6112,2.0221
4.08,-0.0413,0.4356,10.1667,-10.7104,10.6686,4.33
4.1,-0.0619,0.4436,10.0892,-13.6765,6.7972,3.771
4.12,-0.1656,0.453,10.0148,-6.519,8.9388,2.4476
4.14,-0.025,0.5485,9.9816,-7.3466,3.5796,1.8262
4.16,-0.021,0.4225,9.7528,2.6584,4.6397,5.7978
4.18,-0.1091,0.5042,9.9252,0.4112,8.658,4.3899
4.2,0.1365,0.5646,9.9912,3.0034,10.5541,4.202
4.22,0.0214,0.5086,10.085,4.6872,4.6521,3.9437
4.24,0.1902,0.6415,10.1134,10.7765,8.5196,5.3499
4.26,0.0909,0.5879,10.0935,10.2237,6.5451,1.683
4.28,0.2618,0.67,10.1802,11.4744,8.541,2.6946
4.3,0.1797,0.6546,10.2156,8.1468,10.702,2.7052
4.32,0.1915,0.7104,10.2879,6.8842,8.8911,0.386
4.34,0.2597,0.6833,10.2954,12.4617,8.8195,-0.8488
4.36,0.1978,0.5609,10.3825,10.3089,6.264,1.1911
4.38,0.1247,0.7893,10.2772,9.6198,3.4587,-2.1468
4.4,0.1678,0.7103,10.4128,14.1636,11.3021,1.2877
4.42,0.1354,0.8436,10.3458,14.1417,7.9711,-1.0772
4.44,0.289,0.8262,10.2491,11.2135,9.5454,-3.8848
4.46,0.2782,0.6481,10.2013,10.5062,11.0412,-2.0554
4.48,0.1306,0.6354,10.2229,11.132,7.1615,-3.623
4.5,0.1619,0.5872,10.0519,8.2551,7.4566,-3.9234
4.52,0.1191,0.6823,10.0532,3.6708,7.4967,-3.6991
4.54,0.094,0.6984,10.0027,6.6975,5.968,-4.3394
4.56,-0.0098,0.6381,10.0184,0.6308,8.2446,-5.2554
4.58,0.0593,0.5854,9.8187,4.1683,9.6217,-4.1628
4.6,-0.056,0.5061,9.9071,-1.4963,10.3545,-3.3111
4.62,-0.0458,0.3827,9.9799,-0.2713,8.6139,-4.4322
4.64,-0.0826,0.5323,10.085,-7.184,8.8832,-4.5883
4.66,-0.011,0.5463,10.2016,-6.3269,10.2071,-3.0923
4.68,-0.2178,0.4568,10.1958,-10.181,9.5264,-3.9725
4.7,-0.2301,0.3984,10.1925,-7.9333,8.4975,-2.8361
4.72,-0.1559,0.5267,10.2786,-14.2006,10.4109,-3.6131
4.74,-0.2775,0.4576,10.3446,-10.0247,4.2565,-0.9144
4.76,-0.2642,0.4336,10.3915,-11.4284,5.6443,-3.3202
4.78,-0.09,0.4306,10.4737,-11.3644,6.3211,-0.5364
4.8,-0.1812,0.3283,10.3427,-10.7679,10.0678,1.2493
4.82,-0.2312,0.4945,10.3939,-16.7717,9.9619,-0.6506
4.84,-0.0778,0.3164,10.2918,-13.5957,7.8014,2.3885
4.86,-0.1939,0.4015,10.3308,-9.9597,7.4109,3.5269
4.88,-0.071,0.4897,10.2283,-7.7559,7.6985,1.4257
4.9,-0.1708,0.3702,10.1982,-3.9491,6.3069,1.2584
4.92,-0.066,0.3859,10.0826,-6.1369,7.798,1.2613
4.94,-0.1971,0.5315,10.1257,-2.8226,7.2854,2.8203
4.96,-0.0696,0.4997,9.9556,-0.2926,6.445,2.3679
4.98,-0.0183,0.4827,9.9104,0.6113,8.7695,3.7691
5.0,0.1738,0.6425,9.8382,-0.3031,8.9144,2.3947
5.02,0.018,0.4249,9.9485,0.7313,9.6548,4.7273
5.04,0.1704,0.4925,9.8898,3.4402,6.8188,3.8081
5.06,0.0451,0.7367,10.083,3.3115,9.7855,5.038
5.08,0.0548,0.6101,10.0826,1.4824,6.8267,2.3808
5.1,0.1194,0.7224,10.1405,3.4229,6.7534,2.6086
5.12,0.1919,0.6324,10.2385,16.4304,10.7121,2.345
5.14,0.209,0.6863,10.2847,13.8559,7.537,2.2534
5.16,0.1306,0.6402,10.3031,12.7726,6.7932,-0.7529
5.18,0.2002,0.7281,10.3265,10.296,5.7775,1.0653
5.2,0.0275,0.555,10.28,8.9669,7.1476,-1.9737
5.22,0.0321,0.6797,10.377,12.3636,7.3053,-2.4231
5.24,0.2213,0.8975,10.3881,10.8009,7.4737,-0.0895
5.26,0.0913,0.6699,10.2909,9.5931,7.8752,-0.8862
5.28,0.2027,0.8129,10.255,9.8497,6.045,-4.0921
5.3,0.144,0.6224,10.1947,11.4836,9.2204,-3.0919
5.32,0.1452,0.6296,10.1937,10.2209,6.6564,-4.9108
5.34,0.1338,0.55,10.0519,7.7483,7.9659,-3.3056
5.36,0.0906,0.561,10.0379,2.096,10.3828,-4.8096
5.38,0.1084,0.5418,9.9995,3.9205,8.8638,-4.6451
5.4,0.0513,0.5683,9.8983,3.2364,6.7441,0.8315
5.42,-0.0022,0.511,9.7847,0.41,6.3999,-5.0678
5.44,-0.0607,0.413,9.8036,-2.3236,8.3284,-4.7773
5.46,-0.096,0.3913,9.9213,-2.2796,10.1807,-2.9525
5.48,-0.1275,0.3672,10.0605,-8.3475,9.8384,-3.0049
5.5,-0.1277,0.638,10.202,-6.517,7.9738,-2.6004
5.52,-0.152,0.4573,10.1932,-9.3114,7.843,-3.709
5.54,-0.2316,0.4798,10.2853,-4.9748,6.694,-0.6113
5.56,-0.0608,0.3459,10.2524,-9.9585,8.897,-3.6744
5.58,-0.2566,0.4196,10.3265,-9.9775,5.9625,3.6182
5.6,-0.1922,0.3376,10.3798,-10.708,7.4207,2.2969
5.62,-0.1839,0.3033,10.372,-14.5414,5.7356,2.0083
5.64,-0.1744,0.1965,10.3744,-10.3135,6.8706,-1.0364
5.66,-0.252,0.462,10.345,-13.8619,8.1517,0.8199
5.68,-0.1662,0.3085,10.4122,-11.8047,9.4798,1.4026
5.7,-0.2613,0.4585,10.2455,-7.9143,6.5832,5.5292
5.72,-0.1415,0.4599,10.1681,-10.3201,5.9556,5.3464
5.74,-0.1999,0.4555,10.0717,-7.8714,8.8941,5.1535
5.76,-0.0902,0.3152,10.2429,-5.88,7.6979,1.7328
5.78,-0.0582,0.3301,10.0587,-2.3622,7.7907,4.7811
5.8,-0.1967,0.4694,10.0201,1.0443,4.2809,4.7662
5.82,-0.0847,0.6325,9.8743,2.4054,7.0633,3.0305
5.84,0.1388,0.5805,9.7731,-1.9165,9.1911,3.3337
5.86,0.0169,0.6378,9.9819,-1.2951,10.5659,4.691
5.88,0.1232,0.5999,10.0772,1.3765,7.3312,5.2493
5.9,-0.0113,0.6027,10.1392,3.5619,10.7447,2.9452
5.92,0.2273,0.6778,10.0424,10.3572,10.5455,0.1969
5.94,0.1634,0.7008,10.1439,9.6867,9.6608,3.8241
5.96,0.0862,0.6974,10.2827,9.4256,8.785,1.8185
5.98,0.2091,0.6528,10.2992,9.0051,11.5173,0.6006
6.0,0.1985,0.7902,10.3114,11.4396,10.8355,1.5054
6.02,0.2033,0.7289,10.3418,10.6763,4.4178,2.016
6.04,0.1854,0.6176,10.3265,15.4746,5.437,1.5008
6.06,0.1072,0.6836,10.3471,9.0462,9.0871,-0.9826
6.08,0.1847,0.5996,10.3657,14.0314,10.7817,-1.4886
6.1,0.2384,0.7522,10.235,6.5671,5.9605,-2.222
6.12,0.2431,0.6673,10.2162,11.6595,6.4332,-3.6098
6.14,0.0773,0.6224,10.2575,10.9864,7.154,-2.0308
6.16,0.3528,0.5715,10.1387,7.0474,11.5071,-3.154
6.18,0.1448,0.7506,10.098,8.7022,7.9887,-2.2673
6.2,0.1535,0.6027,10.0824,1.3919,9.7959,-4.0285
6.22,-0.041,0.8116,10.0248,-2.0631,4.4964,-4.8886
6.24,-0.0229,0.6365,9.883,-5.5203,7.5625,-3.8842
6.26,-0.1131,0.5703,9.9323,-1.4345,8.4624,-4.6516
6.28,0.0664,0.6054,9.9745,-3.908,8.0516,-2.9068
6.3,-0.1211,0.5341,9.909,1.6154,11.1287,-6.7345
6.32,-0.0972,0.5976,10.0796,-10.0455,9.4781,-1.2856
6.34,-0.085,0.4656,10.2432,-8.7754,4.7349,-2.3377
6.36,-0.1955,0.4017,10.1462,-10.6543,9.9787,-4.7691
6.38,-0.1629,0.3352,10.2771,-6.0958,6.124,-2.0506
6.4,-0.2911,0.3879,10.2806,-9.6513,12.1403,-0.8826
6.42,-0.1761,0.3533,10.3165,-9.1786,9.1249,-1.6431
6.44,-0.2608,0.4563,10.2636,-12.1316,9.4396,-0.665
6.46,-0.2513,0.3998,10.2837,-15.4981,9.7194,-0.0883
6.48,-0.231,0.5001,10.3633,-12.2754,3.907,2.7706
6.5,-0.189,0.2673,10.3975,-14.683,5.3951,0.3974
6.52,-0.2576,0.5038,10.3343,-10.5277,9.6687,1.7325
6.54,-0.2675,0.3212,10.26,-10.8783,8.7541,1.274
6.56,-0.1479,0.4971,10.2121,-12.1636,10.5814,3.4055
6.58,-0.2709,0.4768,10.2178,-6.0893,8.6099,4.8296
6.6,-0.0743,0.4525,10.1129,-6.5123,9.5602,5.1378
6.62,-0.162,0.4948,10.0342,-7.1747,8.2916,3.3804
6.64,-0.0434,0.5243,9.8675,-6.1632,10.7582,3.6116
6.66,0.0655,0.5084,9.7804,0.5969,8.7069,3.9536
6.68,-0.028,0.5079,9.9084,1.5996,6.0667,7.6181
6.7,0.1871,0.6181,9.8674,9.3053,7.7372,5.4276
6.72,0.2039,0.6241,10.0288,3.4496,9.0901,2.8013
6.74,0.1682,0.5877,10.1593,4.8289,8.3092,4.0614
6.76,0.1555,0.6198,10.2129,7.5889,6.602,4.8913
6.78,0.0962,0.5704,10.1356,7.0688,4.7821,3.0245
6.8,0.2221,0.7256,10.399,9.8442,8.1897,1.6991
6.82,0.2168,0.6432,10.2949,13.7803,3.7036,3.482
6.84,0.1809,0.6884,10.3721,9.5678,5.7654,0.2034
6.86,0.2188,0.7763,10.5046,7.5004,12.5402,-2.3708
6.88,0.1254,0.7463,10.379,12.6382,10.93,-1.8809
6.9,0.2204,0.8261,10.409,12.0663,8.4174,0.4765
6.92,0.0533,0.5233,10.2572,6.9231,6.9626,-1.2966
6.94,0.2691,0.6843,10.3245,10.8465,8.4429,-0.9331
6.96,0.0311,0.5115,10.2925,9.9382,8.5055,-3.7155
6.98,0.1013,0.6758,10.1322,15.4183,4.9431,-3.7637
7.0,-0.0512,0.5595,10.1652,4.2377,9.1113,-4.1917
7.02,0.0748,0.6055,9.9982,7.1807,7.4648,-4.8144
7.04,0.0956,0.594,9.9061,6.1425,8.8478,-2.7436
7.06,0.1168,0.4356,9.864,0.0076,9.3168,-7.5192
7.08,-0.002,0.5856,9.798,-1.004,8.2862,-3.3516
7.1,0.0589,0.5321,9.8828,-2.4684,5.2749,-2.4127
7.12,-0.1613,0.5109,9.896,-5.9282,7.5044,-3.4003
7.14,-0.215,0.4809,9.9858,-9.3352,5.0473,-1.5274
7.16,-0.0053,0.5008,10.1279,-4.7551,7.5643,-3.5572
7.18,-0.1052,0.3342,10.0027,-9.4234,5.9614,-0.0544
7.2,-0.2503,0.4063,10.1282,-8.8043,5.1327,-4.3002
7.22,-0.2154,0.407,10.3467,-9.8833,8.2259,-1.4586
7.24,-0.0116,0.478,10.3342,-13.586,6.9311,-2.5192
7.26,-0.26,0.5014,10.2743,-10.849,8.7605,-1.1418
7.28,-0.128,0.6021,10.3484,-14.2365,5.419,-3.1552
7.3,-0.1757,0.4028,10.3838,-11.4728,7.2259,-2.0348
7.32,-0.0673,0.478,10.5051,-11.63,6.1257,0.7178
7.34,-0.1915,0.3717,10.4157,-16.4522,8.8634,2.1617
7.36,-0.1749,0.6017,10.3849,-10.2304,7.6192,3.2707
7.38,-0.2177,0.5831,10.2241,-11.7793,7.1597,3.7439
7.4,-0.0881,0.4772,10.2681,-9.6416,7.3585,0.6634
7.42,-0.1228,0.3624,10.1017,-6.505,9.48,1.5534
7.44,-0.1062,0.4499,10.0785,-3.7223,5.8756,3.6351
7.46,0.0523,0.612,9.917,2.6088,9.8278,5.9079
7.48,0.0394,0.5467,9.8371,1.7085,9.8707,3.3096
7.5,0.0319,0.569,9.8356,-2.3496,7.6259,2.7683
7.52,0.1228,0.638,9.8902,1.6874,10.8921,4.8816
7.54,0.0801,0.7157,10.0208,5.4814,8.8296,2.6095
7.56,-0.0525,0.7887,9.9741,0.8395,8.9758,5.3415
7.58,-0.0081,0.4509,10.1473,9.5781,9.2042,3.9455
7.6,0.1079,0.8178,10.2187,10.8592,7.9997,1.7418
7.62,0.1383,0.6516,10.3139,9.0861,11.2371,2.4074
7.64,0.1761,0.6675,10.2814,8.0691,4.7511,-0.1708
7.66,0.1797,0.6272,10.3015,11.0661,6.0619,1.0191
7.68,0.1583,0.7724,10.3535,12.2479,6.7207,0.8364
7.7,0.1633,0.8767,10.4675,10.6126,7.4326,0.6893
7.72,0.2619,0.6798,10.2405,13.1902,4.1946,-0.5118
7.74,0.2422,0.6412,10.3052,14.3741,5.3446,-2.2624
7.76,0.1956,0.6419,10.2786,11.9642,7.5524,-0.7747
7.78,0.135,0.6829,10.2656,12.132,3.4879,-2.5827
7.8,0.1105,0.5749,10.267,9.7911,10.148,-3.8634
7.82,0.0851,0.5803,10.2007,9.9106,10.2679,-1.6408
7.84,0.1017,0.5879,10.0898,8.6461,4.6586,-3.2026
7.86,0.1351,0.6075,9.9993,11.0782,8.7101,-4.2572
7.88,0.0373,0.6112,9.9905,3.7816,8.8268,-4.7032
7.9,0.0592,0.5725,9.9367,2.5612,8.636,-4.8006
7.92,-0.0207,0.6339,9.7344,0.2139,5.7106,-7.4739
7.94,-0.1064,0.6092,9.8334,-4.8516,12.036,-6.3927
7.96,0.0376,0.5192,9.898,-2.043,6.1381,-4.3757
7.98,-0.0192,0.4451,9.9277,-8.7807,10.8436,-4.4511
8.0,-0.1798,0.5578,10.0372,-5.3522,9.2177,-2.7499
8.02,-0.0646,0.453,10.151,-7.6037,6.4261,-3.991
8.04,-0.1938,0.3105,10.2794,-6.6207,3.1778,-2.5287
8.06,-0.3205,0.4794,10.2588,-11.9443,6.8501,0.1387
8.08,-0.1694,0.2971,10.3472,-10.5099,10.3788,0.9401
8.1,-0.1334,0.2747,10.4463,-12.4717,11.1307,2.1771
8.12,-0.2618,0.4762,10.3741,-8.4245,9.1592,-0.7041
8.14,-0.3192,0.3544,10.3597,-10.714,11.8679,-1.7991
8.16,-0.258,0.4393,10.4212,-15.4952,5.0358,1.4433
8.18,-0.1217,0.369,10.2442,-10.7391,13.0686,4.838
8.2,-0.1365,0.3247,10.3594,-12.7908,9.7249,3.3235
8.22,-0.1208,0.4128,10.1097,-11.8036,6.2379,2.6702
8.24,-0.237,0.5856,10.135,-6.8391,7.5637,4.027
8.26,-0.0281,0.3777,10.0642,-2.0769,2.557,2.4178
8.28,-0.106,0.3637,10.0638,-6.8878,8.8511,2.1384
8.3,-0.111,0.4893,10.035,-2.3832,6.0843,5.6799
8.32,-0.0383,0.5135,9.9796,-1.9624,5.2171,3.6004
8.34,0.0056,0.5853,9.8259,-4.0413,8.4058,1.9806
8.36,0.0688,0.64,9.9296,5.7911,8.5559,5.3507
8.38,0.1244,0.5841,9.941,3.5295,10.2152,3.737
8.4,0.1587,0.6888,10.0138,7.4645,7.7971,1.1272
8.42,0.0855,0.5883,10.0978,7.9886,3.3433,5.1645
8.44,0.1402,0.5806,10.2962,12.4147,7.4655,1.7314
8.46,0.1416,0.6447,10.1514,9.33,6.2651,2.1462
8.48,0.0413,0.6885,10.3318,11.9197,6.5666,3.6081
8.5,0.2362,0.6398,10.2905,8.5451,7.6783,0.9561
8.52,0.0786,0.7326,10.4704,13.8195,5.626,-1.5558
8.54,0.1539,0.6433,10.3737,11.8852,10.2862,0.2637
8.56,0.3257,0.8101,10.4084,13.6047,10.5852,-1.029
8.58,0.2263,0.7259,10.2976,9.8257,7.0124,-0.888
8.6,0.2442,0.7104,10.3393,5.464,10.0383,0.7945
8.62,0.2285,0.7296,10.2296,8.2137,6.0527,0.8402
8.64,0.0205,0.7612,10.2215,4.7013,8.3634,-1.4439
8.66,0.0878,0.6427,10.177,8.8481,8.7378,-2.9291
8.68,-0.0315,0.7106,10.0319,7.5861,7.1701,-2.841
8.7,0.1953,0.662,9.9751,0.7195,5.9221,-3.8521
8.72,-0.0101,0.5225,9.9375,4.2087,10.5534,-3.4883
8.74,0.2041,0.5495,9.8462,-1.3749,6.8881,-8.4629
8.76,-0.0002,0.586,9.8495,-0.8219,7.9206,-4.4222
8.78,0.0096,0.4672,9.8713,-5.3898,8.2048,-5.2463
8.8,-0.1254,0.4792,9.9973,-5.5552,5.898,-2.5264
8.82,-0.1037,0.5117,10.0821,-10.5267,8.835,-5.6234
8.84,-0.0366,0.4774,10.0559,-7.3157,6.5723,0.3685
8.86,-0.1921,0.4709,10.26,-4.466,11.7514,-0.0652
8.88,-0.2014,0.4341,10.2097,-7.6252,9.1338,-0.4543
8.9,-0.0971,0.431,10.2927,-10.0427,7.5391,0.9514
8.92,-0.1973,0.4559,10.4472,-10.5441,9.1424,-1.7456
8.94,-0.1928,0.3779,10.3197,-11.4659,9.3924,0.7676
8.96,-0.3261,0.2682,10.4509,-16.0131,5.025,-0.9389
8.98,-0.2554,0.4076,10.2942,-12.4774,11.0,1.9253
9.0,-0.0834,0.3954,10.2147,-10.5089,6.6814,1.5559
9.02,-0.3216,0.4132,10.3279,-10.3133,8.1805,1.4287
9.04,-0.226,0.5262,10.1326,-12.7144,6.1298,2.0461
9.06,-0.1054,0.4321,10.1532,-8.157,7.5586,5.4272
9.08,-0.099,0.3825,10.1463,-5.6879,7.4584,5.4076
9.1,-0.1392,0.5137,10.1879,-4.7399,10.8266,2.4462
9.12,-0.1301,0.5378,9.9974,-6.35,7.161,5.3158
9.14,-0.0384,0.6373,9.9015,-2.7607,11.0115,6.061
9.16,-0.0235,0.5143,9.7528,2.4939,8.0855,2.6996
9.18,0.0069,0.5378,9.9141,3.9675,4.9774,5.0945
9.2,0.0101,0.5257,9.9251,6.1842,11.4287,4.6127
9.22,0.1032,0.6935,10.1067,5.413,4.0937,5.4276
9.24,0.115,0.6312,10.0537,10.2135,8.7261,2.4424
9.26,0.0865,0.6626,10.167,5.2506,7.7939,4.3719
9.28,0.2212,0.6585,10.1971,13.1137,11.1279,0.6876
9.3,0.2497,0.7313,10.3191,8.9715,6.8542,2.8281
9.32,0.2505,0.5958,10.2904,11.0721,10.7471,3.4363
9.34,0.1587,0.6927,10.2865,14.8073,7.4771,0.1882
9.36,0.2262,0.6925,10.2382,8.4904,8.0848,-0.3401
9.38,0.2223,0.6638,10.316,14.5555,9.954,0.5466
9.4,0.2166,0.609,10.3733,11.3275,5.5019,0.5201
9.42,0.2434,0.7927,10.4185,6.9502,10.3053,-4.0311
9.44,0.0381,0.6619,10.3011,13.2392,5.4386,-1.8786
9.46,0.1701,0.7877,10.2893,10.1128,8.5121,-3.3004
9.48,0.0708,0.6498,10.1597,6.681,7.1575,-3.5585
9.5,0.0523,0.7006,10.0797,9.0846,7.5916,-3.319
9.52,0.0302,0.5749,10.0637,6.0788,8.4324,-2.7845
9.54,0.0757,0.598,10.0049,6.2989,8.6377,-4.9088
9.56,0.1032,0.4971,9.8655,1.4235,8.6271,-1.2812
9.58,-0.0049,0.6744,9.8382,3.0636,6.8155,-3.7074
9.6,-0.0014,0.4804,9.894,-0.2607,5.317,-2.6492
9.62,-0.1111,0.5077,9.9181,-4.1079,5.9238,-3.8358
9.64,-0.0145,0.4106,10.0245,-9.1644,11.0124,-4.5368
9.66,-0.0512,0.3992,10.1431,-4.8881,7.467,-4.1866
9.68,-0.1076,0.4332,10.2889,-8.2242,7.2813,-3.4396
9.7,-0.0928,0.3899,10.2968,-7.9025,5.9902,-3.5
9.72,-0.1708,0.3131,10.2617,-10.6275,9.3552,-1.9332
9.74,-0.2194,0.4421,10.3475,-9.5262,6.7906,1.1504
9.76,-0.1683,0.4737,10.341,-9.179,8.1172,-0.1467
9.78,-0.2306,0.2806,10.4126,-7.1522,9.3961,0.4287
9.8,-0.2224,0.4369,10.3846,-11.6274,6.0668,-1.0849
9.82,-0.1878,0.3529,10.4066,-12.8419,7.4554,1.3324
9.84,-0.2192,0.3473,10.293,-15.3729,8.1671,1.4832
9.86,-0.2714,0.5014,10.2656,-7.2306,7.5697,2.6044
9.88,-0.1342,0.512,10.2447,-9.658,7.8332,1.1072
9.9,-0.2684,0.4816,10.1479,-10.1953,7.8323,-0.3492
9.92,-0.3031,0.4938,10.1431,-6.2206,8.9172,2.873
9.94,-0.0468,0.4855,10.0479,-6.4977,7.3798,1.7943
9.96,0.0023,0.4935,9.9601,-2.9382,6.8142,4.3777
9.98,-0.1206,0.4703,9.689,-2.2609,9.2448,0.0947
10.0,-0.1105,0.584,9.7028,2.4369,6.2952,5.6442
10.02,0.0304,0.5409,9.9492,1.1644,9.2009,2.1799
10.04,-0.0361,0.6678,10.0112,5.4219,10.5919,3.6165
10.06,-0.0248,0.5519,10.0051,0.78,8.2883,5.8104
10.08,0.1099,0.5822,10.0529,0.7034,7.7291,3.9656
10.1,0.0723,0.6944,10.2357,10.1324,8.2748,0.5706
10.12,0.1508,0.718,10.2738,10.3679,6.3379,6.187
10.14,0.2607,0.7601,10.2308,8.906,8.8695,1.8604
10.16,0.1731,0.547,10.2052,8.6394,7.9374,2.4378
10.18,0.1645,0.7072,10.3052,8.8867,7.0261,1.6728
10.2,0.1884,0.6947,10.3549,10.1533,7.5614,0.3055
10.22,0.1545,0.8196,10.2893,17.7713,7.1282,1.0889
10.24,0.2255,0.8098,10.3325,13.3752,6.314,-4.5849
10.26,0.0429,0.5621,10.443,9.9869,4.6256,0.8361
10.28,0.1932,0.7484,10.2578,10.6398,7.0208,-1.153
10.3,0.2063,0.6622,10.188,6.9715,9.4274,-3.3331
10.32,0.2312,0.7399,10.0277,6.2134,7.5803,-3.7693
10.34,0.0394,0.6915,10.0323,5.0328,9.2538,-4.0124
10.36,0.0979,0.4913,10.0711,7.6306,7.2648,-2.0669
10.38,0.0213,0.517,10.1211,1.2875,8.1211,-6.0611
10.4,-0.0044,0.5658,9.8766,-0.8937,7.2668,-1.9992
10.42,0.0415,0.5884,9.8243,2.3005,9.1327,-3.3831
10.44,-0.1092,0.5145,9.9204,-4.6176,6.6222,-6.6642
10.46,-0.0361,0.5199,10.0107,-5.7964,8.124,-2.1441
10.48,0.0241,0.4977,10.0932,-10.0575,7.4027,-3.1452
10.5,-0.1718,0.4626,10.2151,-6.9664,9.665,-3.9808
10.52,-0.1386,0.4768,10.2789,-5.6614,9.0724,-4.6951
10.54,-0.0964,0.3371,10.1725,-6.8444,9.7064,-0.8362
10.56,-0.2128,0.4322,10.3198,-10.2369,5.5067,-1.0033
10.58,-0.0808,0.4621,10.3746,-9.8166,3.7221,-0.1485
10.6,-0.2372,0.3512,10.3218,-14.755,7.1472,-2.3723
10.62,-0.2077,0.5675,10.4207,-14.2766,9.1765,0.9696
10.64,-0.198,0.4415,10.4091,-12.2778,9.9921,0.4628
10.66,-0.1658,0.4287,10.3205,-14.5881,7.5128,-2.4014
10.68,-0.0923,0.4456,10.2001,-9.9604,6.3916,1.789
10.7,-0.2891,0.4778,10.221,-12.5704,8.8929,2.5625
10.72,-0.0439,0.3828,10.1803,-10.7189,5.277,3.9462
10.74,-0.1169,0.5231,10.1346,-5.0912,6.7156,2.9105
10.76,-0.0681,0.4547,10.0526,-8.1055,3.7739,3.1697
10.78,-0.0483,0.4497,9.9664,-1.6938,6.6815,1.8512
10.8,0.0247,0.5813,9.9964,-4.8753,8.033,5.2962
10.82,0.079,0.4827,9.8466,-2.3872,6.5445,5.8496
10.84,0.0601,0.5533,9.8236,-0.9418,6.043,4.9891
10.86,0.1038,0.6309,10.0012,5.417,7.0487,4.6705
10.88,0.0074,0.5199,9.9175,10.1012,4.4095,1.6527
10.9,0.1221,0.5434,9.9995,4.3467,5.0733,3.47
10.92,0.0535,0.5793,10.1542,11.7765,5.4609,1.6652
10.94,0.1198,0.5651,10.1677,11.773,9.9055,4.1405
10.96,0.1268,0.542,10.2461,11.472,7.0152,4.102
10.98,0.209,0.716,10.3429,11.5513,7.0354,-2.3074
11.0,0.2596,0.7094,10.3517,10.2349,10.1329,0.2178
11.02,0.2754,0.6703,10.3652,11.9502,8.2061,-0.2182
11.04,0.161,0.6193,10.2923,4.7799,8.3355,-0.9228
11.06,0.1974,0.7876,10.2744,15.0144,8.2521,-0.9928
11.08,0.0187,0.7542,10.3945,9.3006,6.629,-1.9655
11.1,0.1799,0.6836,10.3998,11.5445,5.7659,0.4956
11.12,0.2486,0.6149,10.2526,12.7967,10.4096,-5.6898
11.14,0.1234,0.8026,10.2929,11.2678,7.5661,-0.3566
11.16,0.1462,0.654,10.1749,8.7072,9.053,-2.8426
11.18,0.0521,0.7481,10.0905,6.6251,9.3117,-1.3875
11.2,0.1912,0.644,10.0663,5.9148,11.0802,-5.3346
11.22,-0.0465,0.6207,9.9855,3.4712,7.2871,-3.3298
11.24,-0.0298,0.5673,9.8177,-0.3843,10.2635,-4.4225
11.26,-0.1341,0.5558,9.7981,4.3869,7.7757,-3.1939
11.28,-0.0789,0.552,9.9534,-4.3725,10.2827,-5.1625
11.3,-0.1314,0.476,10.0048,-6.9839,12.1007,-2.3603
11.32,-0.0853,0.5384,10.0931,-5.2586,8.5599,-2.9616
11.34,-0.0547,0.4773,10.2394,-6.4159,8.7297,-5.2527
11.36,-0.156,0.2951,10.271,-8.2417,7.9463,-3.8201
11.38,-0.0059,0.4201,10.3176,-8.0111,3.8687,-1.9156
11.4,-0.134,0.4078,10.2904,-14.4156,10.885,-2.6348
11.42,-0.0779,0.4418,10.4046,-16.3052,10.4446,0.3968
11.44,-0.0875,0.5797,10.3027,-14.0694,9.6457,0.2543
11.46,-0.1257,0.409,10.3736,-10.6091,8.4632,1.8554
11.48,-0.3512,0.5751,10.3378,-12.8996,11.1161,2.0318
11.5,-0.066,0.4319,10.3644,-12.0367,11.0673,-1.2103
11.52,-0.3157,0.3572,10.3922,-10.7919,10.8947,0.4126
11.54,-0.0781,0.5459,10.2765,-12.4292,9.0969,1.5641
11.56,-0.1818,0.4956,10.1362,-13.1968,5.6176,1.3756
11.58,-0.2108,0.6017,10.1078,-6.8143,5.9296,4.4492
11.6,-0.1604,0.4458,10.0712,-5.351,9.3055,4.9818
11.62,-0.0766,0.6097,10.021,-3.7978,6.1351,2.1948
11.64,-0.0406,0.5314,10.0026,-1.409,6.4302,2.1894
11.66,-0.063,0.6109,9.7798,-0.9254,8.097,5.3604
11.68,-0.0686,0.5124,9.9706,-0.5251,11.8505,4.429
11.7,0.0007,0.5941,9.9803,2.2127,3.6269,6.8028
11.72,0.1508,0.4327,10.0001,8.2674,9.9438,1.8983
11.74,0.0432,0.5919,10.0289,3.7077,8.2328,5.311
11.76,0.022,0.609,10.1649,7.1787,12.5268,3.0842
11.78,0.2587,0.6491,10.337,5.8101,6.7135,0.5828
11.8,0.1493,0.7416,10.3151,7.7721,9.374,3.4084
11.82,0.2139,0.7005,10.3006,7.1867,9.3789,0.2866
11.84,0.2971,0.6748,10.3872,15.0936,6.2964,1.4403
11.86,0.1701,0.6712,10.3735,7.8325,4.7077,-2.0844
11.88,0.11,0.6806,10.5311,13.1715,9.3756,1.9041
11.9,0.2145,0.7135,10.33,10.7662,8.0503,-1.2517
11.92,0.2572,0.7997,10.2984,10.4322,5.9425,1.0482
11.94,0.1459,0.749,10.3295,10.3064,8.1495,-1.3868
11.96,0.2718,0.7168,10.128,12.172,7.2266,-3.2479
11.98,0.1034,0.519,10.2117,9.4119,6.3734,-1.7992
12.0,0.0233,0.6158,10.1598,8.0653,7.7372,-2.3713
12.02,0.1213,0.5747,9.9796,9.4722,7.2812,-2.7867
12.04,0.0161,0.5448,9.9419,5.2415,9.417,-2.1226
12.06,0.1129,0.7408,9.8689,5.0973,5.1827,-5.1605
12.08,-0.0145,0.6171,9.8241,-2.6354,10.9504,-5.2415
12.1,-0.0666,0.5544,9.806,-0.5553,7.0738,-6.6717
12.12,-0.0969,0.5767,9.9414,-0.4013,3.7756,-4.7341
12.14,-0.0079,0.4852,9.9268,-7.6537,6.959,-2.0657
12.16,-0.1197,0.3986,9.9998,-8.4083,8.6108,-3.528
12.18,-0.2435,0.4792,10.0576,-10.7554,8.4887,-3.4032
12.2,-0.2245,0.5159,10.2212,-7.9923,9.7943,-2.5688
12.22,-0.1767,0.4213,10.3256,-12.1774,6.0232,-0.6283
12.24,-0.201,0.3947,10.3164,-11.8711,8.5093,-3.7785
12.26,-0.2011,0.4094,10.4013,-12.3979,4.5116,-1.0647
12.28,-0.1599,0.3171,10.4071,-11.5399,5.0517,0.9093
12.3,-0.2665,0.5389,10.3344,-13.0603,7.2492,-0.4243
12.32,-0.2126,0.4367,10.3585,-16.2856,6.8513,0.5002
12.34,-0.1411,0.2931,10.3131,-6.6032,12.0737,1.0214
12.36,-0.1199,0.4891,10.2947,-4.1912,11.3362,3.6927
12.38,-0.2119,0.4275,10.2935,-12.2482,7.6395,3.095
12.4,-0.2161,0.2752,10.1703,-4.0838,6.6221,2.5044
12.42,-0.0531,0.4583,10.2675,-11.3561,8.3385,5.0425
12.44,-0.1358,0.3964,9.9936,-7.6828,5.4816,1.9506
12.46,-0.1185,0.5355,10.1007,-5.5123,6.3422,2.2139
12.48,-0.0501,0.5637,9.8739,-5.3514,7.5409,4.6665
12.5,0.1075,0.5554,9.8338,0.4354,6.3379,1.8187
12.52,-0.0851,0.6085,9.9281,3.2341,6.8454,3.2632
12.54,0.0453,0.6029,9.8813,2.508,8.6006,3.6051
12.56,0.0598,0.5586,10.1033,5.1802,8.0342,1.4678
12.58,0.1953,0.7048,10.2461,3.0428,11.5881,4.3909
12.6,0.0842,0.7235,10.1933,6.5312,13.2749,0.4427
12.62,0.0858,0.7697,10.2478,9.8321,7.8873,2.7334
12.64,0.1157,0.6768,10.3495,12.0475,3.6175,1.0083
12.66,0.1404,0.7252,10.3893,11.8399,6.3413,1.8918
12.68,0.2615,0.7134,10.485,17.0708,8.4559,1.1724
12.7,0.2183,0.7735,10.2953,12.8792,11.8031,0.2911
12.72,0.0845,0.7487,10.4457,11.8457,11.8807,0.1968
12.74,0.0695,0.7968,10.3016,12.5848,8.4595,0.4415
12.76,0.2891,0.7759,10.3094,16.0633,9.0832,1.276
12.78,0.1247,0.8063,10.2097,13.9147,6.8522,-2.2678
12.8,0.1298,0.6721,10.1636,11.1223,8.7347,-1.9525
12.82,0.0501,0.5817,10.2019,5.7522,6.0365,-5.7787
12.84,0.0482,0.5826,10.183,6.9544,8.9181,-1.931
12.86,0.1252,0.6181,10.0549,9.5046,7.7438,-3.9351
12.88,-0.0457,0.4779,9.9072,5.7611,8.4577,-5.8036
12.9,-0.0366,0.6891,9.8918,3.3725,7.9062,-2.9839
12.92,-0.0614,0.6397,9.7879,0.4839,5.47,-1.6613
12.94,-0.0538,0.4642,9.8905,-3.8451,5.8078,-4.3672
12.96,-0.0863,0.4114,10.0635,-3.7965,10.9707,-2.4024
12.98,-0.1331,0.3653,10.1445,-3.4302,8.2322,-1.8631
13.0,-0.1652,0.5675,10.1549,-5.6362,7.8793,-2.3355
13.02,-0.0081,0.5297,10.2634,-8.2132,8.0483,-3.5275
