time_s,Ax,Ay,Az,Gx,Gy,Gz
0.0,-0.0114,-0.613,9.833,-0.7246,-5.0712,1.8138
0.02,0.0575,-0.6102,9.939,2.5011,-8.8502,5.1817
0.04,0.138,-0.5745,10.0369,8.1522,-4.6452,4.1036
0.06,0.1739,-0.4713,10.0601,3.9935,-8.4572,2.8259
0.08,0.1257,-0.4687,10.1067,5.4083,-8.2584,3.3278
0.1,0.0635,-0.5461,10.1069,7.0839,-10.4929,3.9144
0.12,0.1855,-0.3272,10.3301,14.4124,-6.2583,3.7127
0.14,0.2519,-0.3518,10.3299,16.3432,-6.4333,-0.5427
0.16,0.2093,-0.5816,10.3168,9.82,-7.4416,2.1484
0.18,0.1825,-0.3624,10.4401,13.5844,-8.5376,1.1734
0.2,0.2186,-0.3051,10.3437,11.1648,-7.8762,-1.7336
0.22,0.1268,-0.4567,10.2687,5.2606,-6.4358,1.6064
0.24,0.21,-0.3577,10.3916,10.8736,-7.8408,-5.3455
0.26,0.2528,-0.339,10.3016,11.3604,-8.9056,-3.9841
0.28,0.1396,-0.3949,10.3068,9.6785,-9.3521,-3.3345
0.3,0.1552,-0.5044,10.3448,7.5795,-6.6433,-1.9846
0.32,0.0645,-0.5773,10.1748,9.3168,-11.1364,-2.6577
0.34,0.2588,-0.6426,10.2231,3.5027,-11.9976,-6.8389
0.36,0.1216,-0.6181,10.0568,6.3092,-9.6759,-1.7461
0.38,0.0376,-0.5031,9.888,3.4338,-7.0072,-5.883
0.4,-0.0959,-0.5528,9.835,2.2559,-7.4365,-1.5634
0.42,-0.0034,-0.7213,9.8844,-0.4601,-5.1105,-3.9384
0.44,-0.0392,-0.5778,9.9724,-2.9778,-4.8178,-4.6329
0.46,-0.1514,-0.5067,10.0405,-4.5153,-12.3074,-4.172
0.48,0.0164,-0.6549,10.1073,-6.6653,-7.2287,-4.458
0.5,-0.1421,-0.5889,10.1575,-2.915,-8.4658,-3.4572
0.52,-0.1382,-0.5272,10.2767,-8.5985,-4.6182,-3.4846
0.54,-0.0899,-0.6407,10.2403,-13.3621,-11.2745,-1.7363
0.56,-0.1358,-0.6968,10.4113,-12.533,-5.5934,-0.1921
0.58,-0.1252,-0.7431,10.3051,-12.3849,-11.9774,-2.1164
0.6,-0.1772,-0.7687,10.3973,-8.7007,-7.9511,-2.0858
0.62,-0.1427,-0.6417,10.3642,-5.2568,-7.5286,0.3439
0.64,-0.1349,-0.7981,10.3768,-12.2435,-10.69,1.1605
0.66,-0.2278,-0.6257,10.2925,-11.0607,-7.9865,1.774
0.68,-0.1238,-0.7434,10.2967,-9.0019,-9.2656,-0.8605
0.7,-0.1463,-0.7764,10.3654,-9.0961,-5.0492,1.4119
0.72,-0.2321,-0.6562,10.3029,-11.5365,-9.4574,2.5213
0.74,-0.0585,-0.8514,10.244,-8.0901,-6.0261,4.7407
0.76,-0.1288,-0.8485,10.1405,-6.1962,-9.3888,6.4373
0.78,-0.2655,-0.5814,10.0425,-8.5463,-7.9045,3.4021
0.8,-0.0146,-0.6906,9.9825,1.0843,-7.3939,7.438
0.82,0.0218,-0.5854,9.8375,0.0388,-7.2965,2.9739
0.84,0.007,-0.5808,9.9086,-0.7508,-7.8621,3.6471
0.86,0.0538,-0.62,9.8018,1.9359,-5.8917,2.8958
0.88,0.0805,-0.5973,9.9764,1.0564,-5.7769,3.6392
0.9,0.1246,-0.4396,9.969,3.2338,-8.5601,3.5557
0.92,-0.0071,-0.5527,10.1543,11.7708,-10.0075,0.7081
0.94,0.0308,-0.343,10.2202,9.0369,-7.3015,3.8616
0.96,0.0932,-0.3892,10.2249,10.6402,-6.6261,2.577
0.98,0.2426,-0.3851,10.3728,12.0635,-8.0933,3.2906
1.0,0.2885,-0.3792,10.2866,5.6303,-8.0053,-1.6691
1.02,0.2209,-0.4599,10.3494,12.741,-8.7927,0.4749
1.04,0.243,-0.3615,10.4121,15.7539,-7.1839,1.2569
1.06,0.1864,-0.398,10.4116,13.663,-5.7632,-0.047
1.08,0.1607,-0.3484,10.3439,11.1407,-6.2851,0.9255
1.1,0.3239,-0.4943,10.347,14.323,-7.4255,-2.4709
1.12,0.1144,-0.5674,10.3181,13.7452,-8.5919,-5.6875
1.14,0.1215,-0.4909,10.2774,5.9404,-7.867,-2.1482
1.16,-0.0076,-0.3236,10.1588,8.9944,-11.2692,-2.5172
1.18,0.1216,-0.5571,10.0214,6.6524,-9.3594,-4.9257
1.2,0.0711,-0.4764,10.0638,9.6887,-3.7179,-4.704
1.22,-0.0297,-0.3645,9.9104,6.802,-6.1829,-3.3494
1.24,-0.0376,-0.5535,9.7613,-4.0469,-7.4743,-5.9678
1.26,-0.0888,-0.5559,9.8101,5.7485,-7.3364,-5.9983
1.28,-0.1539,-0.6375,9.8944,-2.489,-7.7938,-5.2206
1.3,-0.07,-0.713,10.1678,-8.2962,-7.2867,-4.0589
1.32,-0.0829,-0.6239,10.1267,-8.3293,-7.6518,-0.3944
1.34,-0.041,-0.649,10.2519,-8.0307,-7.1749,-1.0629
1.36,-0.0687,-0.6178,10.2075,-9.5547,-6.9101,-3.209
1.38,-0.0871,-0.6411,10.236,-11.244,-8.5441,-3.0167
1.4,-0.1277,-0.6962,10.2929,-8.5378,-8.9966,-2.8778
1.42,-0.0743,-0.721,10.4611,-14.6807,-12.1524,0.0102
1.44,-0.232,-0.8458,10.328,-7.562,-6.6897,-2.7666
1.46,-0.3246,-0.6631,10.3473,-11.8482,-5.7197,-0.8156
1.48,-0.3114,-0.655,10.3518,-13.1354,-4.564,0.7436
1.5,-0.1327,-0.6305,10.2759,-13.3653,-6.8859,2.6551
1.52,-0.1016,-0.6316,10.2624,-7.0842,-5.6208,-0.4542
1.54,-0.1584,-0.6536,10.1402,-9.5578,-8.4855,2.3246
1.56,-0.0695,-0.6179,10.3348,-5.84,-3.9993,1.6424
1.58,-0.096,-0.5011,10.2473,-8.2831,-6.3692,4.2093
1.6,-0.0579,-0.5999,10.1052,-6.6549,-8.848,1.0676
1.62,-0.0773,-0.7107,10.0219,-1.7004,-6.9982,1.2844
1.64,-0.0015,-0.6296,9.8818,-2.2695,-12.0084,3.1251
1.66,-0.0268,-0.5575,9.9327,-3.6908,-9.8922,5.8284
1.68,0.0714,-0.5124,9.8953,4.1641,-6.9423,4.3505
1.7,0.0524,-0.5526,9.9124,8.3371,-9.6652,4.814
1.72,0.1658,-0.5533,10.0115,4.6494,-5.7155,3.371
1.74,0.0598,-0.5072,10.0674,5.1483,-6.1449,3.3336
1.76,0.1461,-0.3722,10.2233,5.8004,-7.2045,1.3045
1.78,0.1175,-0.3269,10.2023,5.0791,-10.7607,2.6957
1.8,0.2009,-0.4235,10.2609,12.2823,-8.108,2.0637
1.82,0.1732,-0.4754,10.2677,9.1593,-7.9961,3.4106
1.84,0.2695,-0.3488,10.4774,13.0146,-11.2456,0.4254
1.86,0.1261,-0.2821,10.3202,11.0686,-8.0642,3.9659
1.88,0.3079,-0.3113,10.3353,13.1623,-11.5078,0.6533
1.9,0.1348,-0.4597,10.4501,16.7639,-9.8741,1.4753
1.92,0.1551,-0.4676,10.3543,12.4369,-11.1457,-3.4645
1.94,0.2155,-0.5267,10.3242,9.5397,-9.9079,-1.6553
1.96,0.2372,-0.512,10.1991,8.6017,-8.1226,-2.1786
1.98,0.1082,-0.5243,10.1833,9.6478,-8.0181,-1.2608
2.0,0.1564,-0.4712,10.0857,5.2213,-9.2973,-3.1438
2.02,0.1676,-0.4751,10.111,3.9348,-9.9487,-3.962
2.04,0.1135,-0.3801,9.95,2.3944,-10.0369,-5.0343
2.06,0.0472,-0.5413,9.9309,5.9566,-5.5226,-0.5671
2.08,0.0583,-0.495,9.7827,-0.0568,-5.4246,-3.1058
2.1,-0.0178,-0.6364,9.9732,-0.8725,-11.6529,-5.8327
2.12,-0.1071,-0.6415,10.072,-2.7064,-8.0259,-5.0658
2.14,-0.1446,-0.3984,10.0329,-3.4135,-7.0044,-2.8768
2.16,-0.1427,-0.5604,10.1023,-7.858,-12.5377,-5.6124
2.18,-0.1095,-0.6689,10.1258,-7.8278,-5.7837,-3.6596
2.2,-0.2144,-0.6195,10.2372,-6.1325,-5.6155,-2.0156
2.22,-0.1857,-0.6655,10.4263,-10.064,-7.1776,-2.946
2.24,-0.2008,-0.7218,10.2912,-9.9454,-9.9352,-0.9183
2.26,-0.0959,-0.8161,10.4322,-10.8813,-8.1611,0.558
2.28,-0.1744,-0.714,10.4067,-13.7594,-9.6873,-1.1732
2.3,-0.192,-0.783,10.4296,-11.0171,-9.7909,-0.8414
2.32,-0.1124,-0.6984,10.2941,-6.997,-10.4986,-0.3486
2.34,-0.0242,-0.6968,10.3575,-13.4432,-10.4816,2.4603
2.36,-0.2186,-0.7308,10.3485,-8.5098,-7.988,0.186
2.38,-0.252,-0.6293,10.2315,-11.0134,-7.0426,4.0147
2.4,-0.2167,-0.6247,10.1633,-6.2528,-8.4992,4.5822
2.42,-0.1198,-0.6509,10.2217,-5.7504,-7.0903,0.9371
2.44,-0.1663,-0.6462,10.0776,-2.3416,-9.4464,4.7065
2.46,-0.0575,-0.722,10.0794,-5.6833,-8.4683,2.5807
2.48,-0.0035,-0.5775,9.9211,-4.1539,-6.7106,5.2916
2.5,0.1384,-0.6455,9.7296,4.9803,-9.4728,5.0011
2.52,0.1046,-0.6,9.82,1.0705,-7.5454,3.2555
2.54,0.1523,-0.5141,10.049,4.0944,-8.0449,4.9253
2.56,0.1769,-0.4083,10.068,-0.5095,-7.4949,3.4083
2.58,0.1836,-0.4774,10.0842,10.8558,-7.0435,2.4497
2.6,0.0822,-0.3412,10.1164,7.4897,-6.9231,5.492
2.62,0.1617,-0.3979,10.1666,7.6595,-9.0269,3.4308
2.64,0.1325,-0.3258,10.3437,14.3039,-6.7999,1.7489
2.66,0.3514,-0.4004,10.2735,12.8644,-7.3806,3.1296
2.68,0.0928,-0.364,10.4137,13.4211,-4.178,1.2366
2.7,0.2006,-0.4008,10.4856,12.629,-8.0316,-1.2628
2.72,0.245,-0.4734,10.453,12.2799,-6.3807,-2.7351
2.74,0.1591,-0.2997,10.3084,6.5939,-12.1927,1.6065
2.76,0.2883,-0.4468,10.3285,8.8342,-6.054,0.4303
2.78,0.185,-0.6072,10.293,11.0536,-7.0801,-1.6493
2.8,0.179,-0.4623,10.2892,8.6012,-13.6628,-1.3592
2.82,0.1737,-0.4559,10.0257,8.7387,-9.9544,-2.6464
2.84,0.0819,-0.4435,10.1267,7.7311,-7.9811,-4.3236
2.86,0.0498,-0.4952,9.9882,1.2632,-10.9891,-3.2768
2.88,0.1128,-0.45,10.0036,2.2469,-9.9791,-2.7152
2.9,-0.0005,-0.4331,9.8234,3.8113,-9.7624,-3.8633
2.92,-0.1186,-0.5167,9.8472,-0.8471,-7.0854,-3.2494
2.94,0.0109,-0.5298,9.8866,-3.9191,-9.2329,-3.9305
2.96,-0.0343,-0.6543,9.9125,-7.5069,-6.6163,-4.0087
2.98,-0.1261,-0.5641,10.0067,-3.3152,-8.2565,-5.8553
3.0,-0.208,-0.6567,10.1902,-1.379,-9.6991,-4.2841
3.02,-0.1087,-0.693,10.1574,-10.605,-8.9226,-2.2962
3.04,-0.2669,-0.6901,10.3474,-11.2446,-11.5704,-0.7651
3.06,-0.2203,-0.6265,10.2897,-10.9856,-6.1498,-0.1802
3.08,-0.2318,-0.7824,10.4477,-8.5493,-10.2352,-2.4262
3.1,-0.1651,-0.6595,10.4142,-13.6999,-7.9793,-0.5655
3.12,-0.1896,-0.7782,10.3465,-7.9808,-4.6912,0.7974
3.14,-0.2401,-0.7454,10.353,-8.1627,-8.784,0.0916
3.16,-0.2394,-0.5682,10.3704,-11.0047,-8.8638,0.2613
3.18,-0.2595,-0.7128,10.2976,-11.6982,-6.5187,-0.2058
3.2,-0.1117,-0.6675,10.2968,-9.118,-4.8584,0.8043
3.22,-0.0934,-0.6606,10.1454,-9.9305,-8.498,3.1162
3.24,-0.0609,-0.7056,10.1165,-8.451,-6.6386,5.063
3.26,-0.1415,-0.5543,10.0822,-8.6624,-7.2462,4.1068
3.28,0.0308,-0.5637,10.0046,-2.9284,-7.2296,2.1192
3.3,0.1292,-0.5645,9.9159,-1.8162,-8.3119,1.8007
3.32,-0.0609,-0.7028,9.7987,0.5183,-2.0994,4.9094
3.34,0.0366,-0.5952,9.7681,0.3043,-8.3944,2.6742
3.36,-0.08,-0.5413,9.9369,-1.5791,-5.3249,3.2253
3.38,-0.0608,-0.5748,10.0183,3.4509,-5.9713,2.2621
3.4,0.1701,-0.4478,10.1257,6.0916,-7.9186,3.6761
3.42,0.1877,-0.4838,10.1003,7.7405,-7.1181,4.3809
3.44,0.0696,-0.4674,10.2009,6.9137,-7.6944,5.0805
3.46,0.0646,-0.3397,10.2953,8.1055,-11.1277,3.4939
3.48,0.1627,-0.364,10.3106,14.8513,-8.2635,-1.3876
3.5,0.1908,-0.4013,10.3238,17.4972,-8.0954,2.9569
3.52,0.3507,-0.4879,10.3528,12.6905,-9.4244,-0.1488
3.54,0.1583,-0.2367,10.2706,11.0072,-5.5449,0.8021
3.56,0.2146,-0.3868,10.4299,9.6655,-4.6681,-0.2416
3.58,0.1957,-0.3851,10.3439,8.2035,-5.5094,-0.4886
3.6,0.2221,-0.4507,10.3053,14.547,-6.3639,-3.6692
3.62,0.247,-0.3922,10.1175,10.7236,-10.9649,-2.281
3.64,0.0989,-0.3948,10.199,7.5736,-10.3184,-0.3563
3.66,0.0464,-0.4199,10.0991,8.0156,-11.136,-2.0912
3.68,0.0512,-0.2714,10.0259,4.616,-8.4614,-2.9199
3.7,0.1049,-0.3549,10.0544,6.2884,-10.5588,-2.9763
3.72,0.0741,-0.4772,9.9484,1.8024,-10.0718,-2.5347
3.74,0.0487,-0.57,9.8236,0.8368,-8.3879,-2.1221
3.76,0.0362,-0.5311,9.8494,-4.9553,-8.9057,-6.099
3.78,-0.1241,-0.5583,9.9116,-3.5736,-8.0359,-2.6572
3.8,-0.0716,-0.5266,10.0693,-4.9416,-7.8209,-8.5711
3.82,-0.045,-0.6606,10.062,-4.6327,-10.7662,-3.0187
3.84,0.0448,-0.7628,10.1306,-8.9507,-5.7772,-4.8174
3.86,-0.3232,-0.5729,10.195,-7.7589,-6.429,-3.7737
3.88,-0.2644,-0.532,10.2259,-11.7683,-5.2677,-2.6502
3.9,-0.1167,-0.6914,10.2579,-13.2651,-10.8345,-1.5604
3.92,-0.262,-0.7912,10.3399,-17.2182,-3.376,-1.1517
3.94,-0.1069,-0.7561,10.3,-16.4602,-9.5169,2.2217
3.96,-0.1198,-0.7333,10.345,-14.4825,-8.9656,0.2004
3.98,-0.1372,-0.6888,10.3428,-10.9167,-6.3303,0.0584
4.0,-0.1809,-0.768,10.3905,-9.7448,-8.8153,3.1584
4.02,-0.2652,-0.7128,10.2196,-8.2911,-5.0934,-0.4432
4.04,-0.087,-0.6199,10.242,-10.3682,-5.8729,3.0845
4.06,-0.0969,-0.7507,10.2982,-11.2887,-8.5382,-0.3014
4.08,-0.2218,-0.6462,10.1065,-5.2902,-8.9286,2.2406
4.1,-0.0758,-0.6129,9.9689,-11.0548,-7.6434,2.0034
4.12,-0.0597,-0.6928,9.9572,-5.5983,-7.9311,6.3028
4.14,0.0473,-0.7096,9.9425,-6.3567,-7.5658,1.9021
4.16,0.0728,-0.6406,9.9222,1.4372,-9.0482,1.9168
4.18,0.071,-0.4241,9.9733,2.1274,-9.4842,4.1644
4.2,0.0086,-0.4387,9.9232,2.0225,-6.6278,3.4543
4.22,0.2714,-0.4409,10.0711,2.407,-11.4303,2.5927
4.24,0.1716,-0.4403,10.098,10.7852,-3.9221,3.2882
4.26,0.0162,-0.4044,10.184,8.1723,-10.1728,0.6827
4.28,0.0559,-0.3528,10.2459,9.4417,-9.2097,0.2525
4.3,0.1514,-0.5842,10.2296,7.4943,-12.7359,2.2564
4.32,0.1866,-0.3972,10.2561,16.1013,-8.8367,2.3546
4.34,0.1456,-0.4218,10.3877,12.9113,-7.862,0.9702
4.36,0.2824,-0.4454,10.3956,16.2821,-7.7443,2.6203
4.38,0.2513,-0.5762,10.3584,12.2681,-6.3453,-1.0714
4.4,0.1971,-0.4945,10.283,7.945,-8.7896,-0.2247
4.42,0.1496,-0.4358,10.3009,10.9539,-4.513,0.2861
4.44,0.3147,-0.5256,10.2964,8.5554,-10.0407,-3.9911
4.46,0.2195,-0.5517,10.2778,7.1694,-9.4872,-2.6188
4.48,0.218,-0.5234,10.1432,8.1792,-8.3953,-1.9587
4.5,0.1764,-0.3534,10.2238,6.5632,-6.2558,-1.8496
4.52,0.2029,-0.4359,10.0847,4.5911,-6.8141,-1.7559
4.54,0.065,-0.6313,9.9593,9.1223,-10.8003,-0.931
4.56,0.013,-0.6274,9.8486,3.7193,-8.4662,-4.3646
4.58,0.0741,-0.6808,9.8622,-0.04,-10.7705,-2.7854
4.6,-0.0623,-0.4232,9.8671,-1.4728,-8.7393,-4.9806
4.62,-0.1247,-0.4487,10.1681,-3.4217,-7.4295,-2.8543
4.64,-0.0197,-0.6197,10.0086,-7.9613,-13.3069,-2.5181
4.66,-0.0366,-0.6394,10.0579,-8.5819,-5.1824,-3.8598
4.68,-0.0905,-0.6692,10.2048,-6.0844,-5.9963,-5.1236
4.7,-0.1772,-0.6219,10.2982,-9.6986,-10.7364,-1.8246
4.72,-0.1769,-0.6861,10.2874,-8.388,-7.008,-2.808
4.74,-0.1946,-0.6872,10.2498,-11.6092,-8.9,-3.1266
4.76,-0.2156,-0.6547,10.3724,-16.3809,-5.732,-2.3831
4.78,-0.0478,-0.7225,10.408,-11.507,-8.927,-1.1291
4.8,-0.1629,-0.7075,10.3758,-12.3106,-7.4389,3.0318
4.82,-0.2432,-0.6892,10.3045,-6.4112,-6.9553,-0.3296
4.84,-0.164,-0.6847,10.3965,-9.1008,-10.1249,2.4179
4.86,-0.2335,-0.633,10.2698,-6.3198,-9.5181,2.7229
4.88,-0.2265,-0.5891,10.2348,-8.5317,-10.2126,1.5995
4.9,-0.0401,-0.7632,10.2184,-7.0561,-9.0698,1.9043
4.92,-0.0778,-0.7571,10.1225,-5.323,-9.8062,4.4166
4.94,-0.1483,-0.6119,10.003,-0.3988,-8.8329,3.4304
4.96,-0.1108,-0.6726,9.9259,-2.0081,-9.2605,4.3486
4.98,-0.0127,-0.6196,9.8767,-1.8534,-6.4143,4.6252
5.0,-0.0079,-0.6276,9.8484,3.0112,-8.2084,4.0356
5.02,-0.097,-0.3433,9.8779,0.7376,-3.8766,2.3623
5.04,0.0582,-0.4852,10.0133,1.8225,-8.2965,5.5563
5.06,-0.029,-0.3092,10.1071,4.1008,-9.4463,1.122
5.08,0.0764,-0.6794,10.1735,5.0603,-7.3904,1.9832
5.1,0.1532,-0.3898,10.2435,7.2047,-7.3935,1.973
5.12,0.1268,-0.3294,10.195,10.4905,-9.2498,4.0643
5.14,0.2713,-0.2562,10.2931,11.2436,-7.2584,0.8345
5.16,0.1348,-0.3672,10.2688,12.3473,-8.1247,0.0016
5.18,0.1978,-0.4368,10.3282,17.2242,-8.5878,-0.1433
5.2,0.2472,-0.4297,10.3325,14.6418,-9.7265,-0.4608
5.22,0.1856,-0.538,10.3238,11.8709,-9.8211,-2.9211
5.24,0.2406,-0.3653,10.2314,8.4429,-4.7816,-1.6359
5.26,0.1193,-0.5011,10.2638,9.1269,-7.4645,0.9851
5.28,0.2325,-0.3829,10.2478,8.087,-9.5379,-4.9617
5.3,0.143,-0.2869,10.1702,8.8408,-10.1597,-2.8141
5.32,0.1858,-0.3852,10.016,6.6355,-9.2583,-2.333
5.34,0.163,-0.5688,10.1703,6.3239,-11.8116,-5.5056
5.36,0.0426,-0.5707,10.0451,1.1764,-8.4166,-4.9789
5.38,0.0379,-0.6092,9.8162,4.7229,-4.6913,-3.5195
5.4,0.0477,-0.5176,9.914,-2.4714,-10.7578,-5.158
5.42,-0.0327,-0.6475,9.7798,3.7047,-5.4682,-6.7364
5.44,-0.0518,-0.499,9.8938,-0.8194,-8.451,-3.8138
5.46,-0.1918,-0.4169,10.0236,-6.4759,-9.8328,-1.2529
5.48,-0.0629,-0.7168,10.07,-7.2455,-10.4816,-3.0771
5.5,-0.0687,-0.6202,10.0871,-6.4672,-5.8579,-4.2744
5.52,-0.1214,-0.658,10.151,-3.7677,-6.6155,-3.3439
5.54,-0.0455,-0.6396,10.3691,-13.7492,-9.82,-2.7611
5.56,-0.2215,-0.7726,10.2729,-16.7564,-9.2106,-1.6348
5.58,-0.1808,-0.7483,10.3173,-11.9877,-5.7105,-0.5061
5.6,-0.3204,-0.6386,10.3398,-8.0596,-6.1928,0.6812
5.62,-0.165,-0.7776,10.4009,-11.7913,-8.1102,0.3025
5.64,-0.1706,-0.7539,10.3545,-14.9867,-7.6719,1.8468
5.66,-0.1602,-0.7476,10.2119,-12.7087,-10.2435,2.2918
5.68,-0.085,-0.6269,10.1773,-7.803,-5.0664,0.9136
5.7,-0.2122,-0.437,10.3131,-9.2394,-8.4833,1.9742
5.72,-0.2313,-0.732,10.2256,-9.7857,-9.7373,3.6786
5.74,-0.1236,-0.6038,10.1462,-1.3788,-7.7837,3.6774
5.76,-0.1004,-0.4305,9.975,-6.8969,-11.0946,3.7831
5.78,-0.2242,-0.5761,9.921,-2.7342,-10.3441,3.6046
5.8,-0.0914,-0.5389,9.9287,-2.9505,-7.1812,2.0284
5.82,-0.0212,-0.525,9.8069,1.2159,-13.7266,3.5885
5.84,0.0466,-0.6986,9.7958,-1.2553,-5.9457,4.4336
5.86,-0.0163,-0.4861,9.9738,1.1236,-5.8657,3.7129
5.88,0.0285,-0.5333,10.0538,6.7682,-7.6356,1.0824
5.9,0.081,-0.4929,9.9872,1.2795,-6.1667,2.1216
5.92,0.1392,-0.3835,10.2485,7.8877,-5.2766,2.1426
5.94,0.1169,-0.4185,10.1617,10.5881,-12.0482,-0.9955
5.96,0.3033,-0.4434,10.3116,6.3267,-6.3629,0.9179
5.98,0.0977,-0.3854,10.2716,8.2863,-10.4738,2.1801
6.0,0.1272,-0.2591,10.3818,11.6864,-8.8162,1.662
6.02,0.2296,-0.3535,10.309,12.9343,-9.5358,1.762
6.04,0.2125,-0.3224,10.3612,9.5108,-5.4962,-0.2429
6.06,0.1997,-0.4562,10.2763,8.853,-6.448,-3.4425
6.08,0.1976,-0.3794,10.3157,15.6015,-6.8108,-0.5188
6.1,0.0259,-0.5338,10.2081,8.8832,-6.6043,-2.4268
6.12,0.0785,-0.4492,10.2581,8.2665,-8.7495,-5.514
6.14,0.19,-0.4075,10.1823,11.1924,-9.0946,-5.3173
6.16,0.1217,-0.5871,10.0907,4.6748,-8.1342,-2.9698
6.18,0.1167,-0.4364,10.1286,3.0228,-11.067,-5.5911
6.2,0.1173,-0.4721,10.0615,4.6039,-4.9241,-5.7946
6.22,0.0214,-0.6311,9.948,2.18,-8.3665,-5.5722
6.24,-0.0138,-0.4295,9.8734,0.4391,-7.8243,-3.1268
6.26,0.0793,-0.4397,9.798,0.4792,-8.5634,-2.9621
6.28,0.0199,-0.6999,9.9095,-3.0912,-10.9089,-4.5891
6.3,-0.0846,-0.6599,10.0125,-2.7581,-7.8016,-2.1264
6.32,-0.2156,-0.5883,10.2289,-7.1108,-9.3923,-2.742
6.34,-0.0721,-0.6674,10.1441,-8.4161,-8.457,-1.7265
6.36,-0.1231,-0.6803,10.1902,-10.7701,-7.2428,-2.2453
6.38,-0.1032,-0.6381,10.3452,-10.9006,-8.6046,-2.9567
6.4,-0.0628,-0.7296,10.3632,-5.5648,-5.4348,-0.8921
6.42,-0.1956,-0.799,10.3839,-12.7113,-10.7015,-5.2144
6.44,-0.1731,-0.5863,10.4809,-10.4684,-5.0704,-0.0051
6.46,-0.2686,-0.7564,10.3664,-11.8627,-7.3835,0.762
6.48,-0.1674,-0.8094,10.4188,-14.3653,-7.309,-0.5055
6.5,-0.1953,-0.7892,10.3413,-12.4473,-6.6736,0.4154
6.52,-0.1192,-0.6172,10.2515,-11.2061,-6.5873,1.3761
6.54,-0.2062,-0.5943,10.3112,-7.2132,-9.1236,4.899
6.56,-0.2324,-0.6588,10.1364,-8.1936,-6.5157,4.4193
6.58,-0.2216,-0.6461,10.2154,-5.6284,-11.1076,5.5306
6.6,-0.1218,-0.6426,10.0633,-3.9934,-10.8597,2.0913
6.62,-0.0813,-0.6493,10.1519,-5.947,-7.6129,3.5447
6.64,-0.0406,-0.626,9.9396,-3.5252,-5.3806,4.5045
6.66,-0.0356,-0.5334,9.9259,-2.7155,-10.2757,4.8809
6.68,0.015,-0.5059,9.7635,-0.1186,-10.0842,4.2982
6.7,0.0091,-0.6009,9.8678,4.9309,-5.4641,2.9243
6.72,0.0366,-0.4717,10.0552,4.352,-6.85,2.7482
6.74,0.1144,-0.5638,10.119,3.2745,-3.8467,5.3294
6.76,0.0739,-0.6088,10.2544,9.3164,-12.7914,2.4317
6.78,0.0986,-0.3479,10.2329,9.7534,-8.5553,3.2431
6.8,0.1333,-0.3989,10.3421,5.623,-8.4889,2.9227
6.82,0.2058,-0.504,10.3307,11.1027,-9.6089,0.6275
6.84,0.259,-0.3934,10.3294,11.8537,-6.6889,-0.4421
6.86,0.1409,-0.4843,10.2271,21.1451,-12.4007,0.98
6.88,0.231,-0.4214,10.4062,12.6177,-7.8972,0.155
6.9,0.1219,-0.4154,10.2879,11.067,-6.2182,-1.3923
6.92,0.2638,-0.2711,10.2831,11.0495,-6.9174,-0.6094
6.94,0.2081,-0.3229,10.3303,11.1082,-7.3806,-2.1293
6.96,0.0813,-0.4185,10.2945,9.9431,-7.4471,-0.5616
6.98,0.1809,-0.3076,10.2375,6.3702,-10.9167,-2.4067
7.0,0.1106,-0.6129,10.0456,10.9419,-4.2854,-5.4287
7.02,0.1527,-0.5508,10.1602,12.618,-7.0569,-4.4897
7.04,0.02,-0.4547,9.96,5.5494,-7.3863,-4.9807
7.06,0.1287,-0.5917,9.8638,-0.2677,-7.0032,-2.8924
7.08,-0.0295,-0.4889,9.8125,-3.2948,-10.2502,-5.712
7.1,-0.0082,-0.5142,9.8774,-1.0583,-7.5131,-4.2323
7.12,-0.1343,-0.745,9.905,0.3995,-9.8906,-3.856
7.14,-0.1476,-0.6185,9.9728,-0.8806,-10.4562,-2.7709
7.16,-0.1949,-0.5147,10.0601,-10.0386,-10.2154,-4.5029
7.18,-0.2713,-0.7842,10.1187,-11.513,-7.6799,-4.5892
7.2,-0.1379,-0.6133,10.3147,-2.5072,-9.0158,-3.2206
7.22,-0.2845,-0.7036,10.3152,-12.0691,-7.7059,-3.4098
7.24,-0.2605,-0.8204,10.3253,-11.3216,-9.899,-1.8037
7.26,-0.2509,-0.7141,10.2339,-11.5419,-9.8474,-3.6781
7.28,-0.1454,-0.6113,10.4667,-9.9812,-4.8304,-1.0323
7.3,-0.2217,-0.6804,10.3805,-9.7493,-7.153,-0.0089
7.32,-0.2859,-0.6517,10.4408,-10.6084,-5.8729,1.2644
7.34,-0.0539,-0.794,10.3229,-10.9515,-6.4663,-0.9538
7.36,-0.1417,-0.7907,10.2699,-11.2848,-4.847,2.4401
7.38,-0.1705,-0.8054,10.282,-11.5726,-7.8005,5.3024
7.4,-0.148,-0.7366,10.2126,-6.0796,-7.3982,5.414
7.42,-0.0413,-0.7489,10.1566,-8.4674,-3.4482,5.8316
7.44,0.0495,-0.4462,10.0769,-7.4072,-6.6702,0.232
7.46,0.0839,-0.3416,10.0421,-5.7109,-6.9707,4.0546
7.48,-0.1031,-0.6143,9.8623,-6.565,-6.7554,4.4959
7.5,0.0207,-0.5442,9.8515,2.2398,-8.0074,3.7595
7.52,-0.0146,-0.6216,9.8327,4.395,-5.6021,3.7583
7.54,0.0567,-0.4622,9.9766,4.5835,-10.7742,2.9771
7.56,0.0765,-0.53,10.0157,5.884,-9.743,2.0966
7.58,0.1896,-0.5557,10.1047,9.1763,-7.5382,6.4364
7.6,0.1267,-0.3828,10.1078,8.8754,-6.8923,4.9007
7.62,0.0509,-0.3613,10.2878,4.936,-10.9228,0.4727
7.64,0.2117,-0.3596,10.3427,6.2593,-6.9693,-0.3696
7.66,0.0661,-0.3793,10.3703,6.5734,-6.7679,3.7068
7.68,0.2446,-0.3995,10.293,9.4981,-9.6705,2.3306
7.7,0.3141,-0.4746,10.3326,9.1696,-8.3744,1.272
7.72,0.1284,-0.5548,10.402,18.4774,-8.2057,-0.517
7.74,0.1555,-0.4407,10.4191,12.055,-7.0921,-3.5334
7.76,0.1903,-0.3769,10.3565,12.5079,-9.9321,-1.4423
7.78,0.0931,-0.4643,10.2603,10.6629,-9.2035,-1.534
7.8,0.0394,-0.4393,10.275,8.6235,-6.7099,-2.1712
7.82,0.2783,-0.5325,10.1308,5.861,-8.9693,-1.7831
7.84,0.1198,-0.5117,10.1149,7.9467,-9.6883,-4.7902
7.86,0.1083,-0.5028,10.1205,3.7952,-9.5534,-4.2926
7.88,-0.0827,-0.5243,10.0023,3.5978,-7.4618,-4.5791
7.9,-0.0347,-0.5246,9.8881,3.7641,-6.9323,-2.9689
7.92,0.046,-0.6891,9.8529,5.0744,-8.7706,-6.5271
7.94,-0.0771,-0.5896,9.9367,2.7516,-7.556,-2.9263
7.96,-0.0437,-0.5637,10.0629,-2.5781,-7.7165,-0.698
7.98,-0.1986,-0.6011,10.1205,-5.0811,-8.9745,-2.4453
8.0,-0.0893,-0.5689,10.1656,-7.7198,-8.2721,-4.3496
8.02,-0.109,-0.6487,10.1669,-6.8269,-8.4282,-2.9208
8.04,-0.2089,-0.5626,10.2876,-8.6086,-11.1323,-2.6316
8.06,-0.2564,-0.6671,10.3024,-12.5334,-10.3428,-2.8232
8.08,-0.1919,-0.6267,10.4027,-11.4634,-5.3064,-2.0615
8.1,-0.081,-0.79,10.3306,-16.3964,-5.9175,1.2444
8.12,-0.3207,-0.6079,10.3321,-18.499,-6.8438,0.438
8.14,-0.2017,-0.6474,10.3454,-14.7111,-6.3309,2.6875
8.16,-0.2444,-0.5742,10.341,-14.0733,-8.6402,2.8755
8.18,-0.1549,-0.7102,10.3539,-12.597,-5.0736,1.307
8.2,-0.145,-0.6776,10.2309,-9.5447,-5.7931,4.0211
8.22,-0.2774,-0.8509,10.2682,-4.607,-8.9299,3.0443
8.24,-0.2019,-0.7401,10.1476,-8.6726,-4.6338,3.0514
8.26,-0.0001,-0.6944,10.0492,-5.5987,-9.8479,3.8292
8.28,-0.1639,-0.4721,9.9774,-7.4552,-7.6211,3.6733
8.3,-0.0908,-0.565,9.9631,1.6859,-7.3847,2.39
8.32,0.0067,-0.6091,9.8668,-3.0134,-7.308,4.4216
8.34,-0.0081,-0.5262,9.9491,2.4425,-9.3916,3.156
8.36,0.0438,-0.5043,9.9671,6.0713,-12.0691,3.1501
8.38,0.0796,-0.4403,10.0576,4.9165,-9.8158,0.4381
8.4,0.0167,-0.4761,10.0416,2.6789,-9.8425,4.5659
8.42,0.1037,-0.4192,10.0855,9.0756,-8.3583,4.042
8.44,0.1908,-0.5348,10.2414,4.5448,-10.5141,1.0552
8.46,0.1448,-0.4772,10.3287,7.9462,-6.5846,1.2587
8.48,0.0567,-0.3942,10.3543,9.8094,-10.6374,-0.085
8.5,0.1544,-0.3392,10.3638,7.5021,-8.7972,3.5022
8.52,0.083,-0.3266,10.329,12.1298,-10.684,0.3242
8.54,0.1743,-0.4366,10.3023,13.5332,-6.2051,0.9024
8.56,0.1356,-0.4426,10.319,12.4834,-6.0531,1.2695
8.58,0.1285,-0.4968,10.4902,7.6784,-11.0876,-2.6038
8.6,0.1567,-0.3262,10.3066,10.3073,-8.2686,-0.6497
8.62,0.1951,-0.2259,10.2599,7.5095,-7.5218,-3.8443
8.64,0.2077,-0.3886,10.1824,9.2034,-7.419,-3.7372
8.66,-0.0025,-0.3622,10.1561,5.7668,-5.8263,-2.7104
8.68,-0.0667,-0.5118,10.098,7.7272,-7.5684,-5.8523
8.7,0.0494,-0.5104,9.9119,4.4145,-8.9772,-4.9464
8.72,-0.0403,-0.4618,9.9968,4.0222,-12.0931,-2.9817
8.74,0.0699,-0.491,9.7348,5.2916,-10.039,-4.7509
8.76,0.0065,-0.4324,9.8654,-0.3782,-5.9961,-6.2046
8.78,-0.0955,-0.6514,9.9017,1.4604,-9.5601,-3.1752
8.8,-0.0545,-0.6062,9.9897,-1.088,-8.2334,-1.1998
8.82,-0.0931,-0.7324,9.986,-8.5463,-13.1817,-0.5824
8.84,-0.107,-0.6739,10.2288,-11.4796,-5.3955,-4.3931
8.86,-0.1631,-0.6753,10.0977,-7.0771,-6.6558,-1.59
8.88,-0.0974,-0.6792,10.1923,-14.0994,-8.2567,-3.9573
8.9,-0.1572,-0.7369,10.2769,-9.5802,-9.5767,-0.4775
8.92,-0.2028,-0.6849,10.3554,-13.7439,-7.731,-1.1259
8.94,-0.2302,-0.7128,10.3787,-9.0698,-7.4973,-2.4733
8.96,-0.1365,-0.6489,10.4521,-14.2348,-8.1154,-0.0623
8.98,-0.0974,-0.7084,10.2099,-16.0067,-10.8485,0.8746
9.0,-0.2625,-0.7386,10.3195,-15.1466,-6.2804,2.5036
9.02,-0.2556,-0.5948,10.2616,-9.7281,-6.0715,0.559
9.04,-0.0162,-0.6686,10.2279,-10.3188,-6.9558,1.7838
9.06,-0.1863,-0.5124,10.0594,-5.9106,-8.7534,3.1173
9.08,-0.1424,-0.7128,10.0882,-6.2455,-7.1713,4.5681
9.1,0.0303,-0.6466,10.0623,-4.1076,-7.4874,2.5765
9.12,-0.0678,-0.6514,10.089,-4.4736,-8.4484,3.7081
9.14,-0.071,-0.5988,9.9391,-7.5887,-6.1993,4.6365
9.16,-0.0128,-0.4554,9.6829,1.5909,-8.6243,5.5519
9.18,0.0678,-0.6231,10.0068,-0.5083,-9.3015,1.9359
9.2,0.0613,-0.5253,9.967,0.9483,-8.6156,3.967
9.22,0.024,-0.5498,10.0596,2.6735,-8.5166,4.414
9.24,0.1789,-0.4984,10.061,5.2424,-10.3201,3.7209
9.26,0.1446,-0.48,10.0983,9.1027,-12.1081,3.2413
9.28,0.2774,-0.3101,10.2488,9.2334,-10.1372,3.1706
9.3,0.0329,-0.313,10.3105,10.5839,-5.1192,2.3301
9.32,0.1831,-0.2885,10.3021,12.2195,-9.0806,1.5523
9.34,0.1685,-0.3632,10.3918,11.9835,-7.2117,2.0458
9.36,0.1424,-0.294,10.3894,15.1481,-5.5231,2.9376
9.38,0.2654,-0.3891,10.4462,11.9889,-6.4948,0.0378
9.4,0.2362,-0.3778,10.3627,9.597,-9.0339,0.3443
9.42,0.1593,-0.3285,10.2808,12.9744,-9.0674,-2.0233
9.44,0.1453,-0.3151,10.245,14.7895,-8.7033,-2.6555
9.46,0.2566,-0.2831,10.2718,7.3755,-6.8659,-2.5388
9.48,0.2418,-0.4678,10.2426,13.4321,-8.3028,-1.8803
9.5,0.1498,-0.4595,10.1365,8.6098,-9.91,-3.2397
9.52,-0.0041,-0.501,9.9851,6.5036,-14.1374,-6.1966
9.54,-0.0145,-0.4483,9.985,2.6249,-9.2999,-4.2186
9.56,0.0499,-0.5494,9.9024,5.3825,-10.9238,-3.8686
9.58,0.0171,-0.4636,9.6905,3.1802,-3.2104,-2.7318
9.6,-0.0622,-0.7349,9.8279,-1.0575,-6.8343,-4.3933
9.62,0.0267,-0.523,9.8473,-2.088,-8.4063,-4.1268
9.64,-0.0451,-0.5009,10.0356,-7.2198,-8.4615,-5.3907
9.66,-0.0777,-0.6955,10.1048,-8.4458,-6.3889,-0.7608
9.68,-0.2978,-0.5908,10.1888,-3.8983,-11.2936,-2.3915
9.7,-0.2049,-0.6632,10.1137,-9.6811,-8.0152,-1.8968
9.72,-0.2349,-0.8059,10.3483,-5.593,-7.6777,-3.5992
9.74,-0.2503,-0.8635,10.3834,-13.4197,-7.8192,-1.3866
9.76,-0.1976,-0.6531,10.3536,-10.3351,-3.7822,-0.6663
9.78,-0.2342,-0.8139,10.4145,-12.2695,-10.1854,1.2846
9.8,-0.2565,-0.8772,10.3548,-9.0979,-6.6833,0.6931
9.82,-0.1011,-0.8288,10.3927,-10.9309,-9.2349,-0.3423
9.84,-0.2461,-0.5333,10.3417,-7.3944,-5.5751,2.4948
9.86,-0.0618,-0.5758,10.4135,-7.9932,-7.1758,1.2657
9.88,-0.1521,-0.6287,10.1742,-11.0269,-4.7968,5.9518
9.9,-0.0967,-0.7681,10.2532,-8.3775,-6.3005,3.3169
9.92,-0.1394,-0.757,10.1743,-6.261,-12.3363,6.2138
9.94,-0.033,-0.5543,10.0028,-5.1128,-10.948,5.4032
9.96,-0.1219,-0.5902,10.1073,1.4764,-7.4562,4.716
9.98,-0.0686,-0.7436,9.9812,-6.3296,-6.7407,1.2767
10.0,0.1386,-0.6266,9.7286,-1.137,-8.9348,3.6221
10.02,0.0089,-0.5281,9.9064,2.6103,-7.3449,6.9947
10.04,0.1614,-0.4828,9.9775,2.8571,-9.4334,2.3725
10.06,0.1681,-0.501,10.0216,4.1263,-10.0006,4.5477
10.08,0.1348,-0.4057,10.1779,9.093,-6.7263,1.4556
10.1,0.0303,-0.6826,10.1337,7.6938,-10.2678,2.4475
10.12,0.1508,-0.4717,10.2565,9.0329,-5.8723,1.8929
10.14,0.0091,-0.3236,10.2732,7.4163,-9.944,2.536
10.16,0.2675,-0.4979,10.4221,10.6105,-5.4361,3.5603
10.18,0.3587,-0.4125,10.2477,8.4536,-4.8311,-0.272
10.2,0.2194,-0.3657,10.4678,13.0089,-7.9162,-0.7825
10.22,0.1722,-0.3774,10.3137,13.6301,-8.6237,-2.5825
10.24,0.1055,-0.4919,10.3501,12.6015,-4.2398,-0.9924
10.26,0.1078,-0.482,10.2898,8.3249,-6.7866,-1.47
10.28,0.1946,-0.3117,10.2645,11.6999,-9.9275,-1.5977
10.3,0.1294,-0.5042,10.2512,9.0843,-9.7668,-2.56
10.32,-0.0078,-0.4923,10.081,5.0847,-3.4312,-4.0853
10.34,0.1298,-0.6247,10.0959,7.0803,-7.7868,-0.728
10.36,-0.0019,-0.4725,10.1143,4.1572,-8.6867,-1.5576
10.38,-0.0867,-0.5557,9.9728,-1.5219,-8.8907,-3.334
10.4,-0.0646,-0.4444,9.9622,2.2778,-8.5189,-4.237
10.42,-0.021,-0.5924,9.8963,-0.7622,-8.9528,-4.649
10.44,0.0852,-0.5755,9.8678,-1.7416,-12.1623,-4.5979
10.46,-0.0188,-0.6475,10.144,-3.0231,-7.7511,-2.7958
10.48,-0.2077,-0.5058,10.0103,-4.7872,-10.4162,-4.3281
10.5,-0.1704,-0.5587,10.2171,-4.478,-5.1545,-4.134
10.52,-0.1684,-0.6751,10.2058,-6.0444,-7.0337,-3.2372
10.54,-0.2339,-0.5652,10.2044,-9.7317,-11.5601,-5.8329
10.56,-0.0593,-0.6677,10.2341,-9.2364,-7.6013,-1.274
10.58,-0.2047,-0.7258,10.3251,-15.5544,-6.5147,-1.9405
10.6,-0.2101,-0.583,10.2947,-11.9955,-6.9735,0.2523
10.62,-0.2227,-0.6828,10.3497,-12.8534,-7.5632,-0.7295
10.64,-0.1662,-0.6982,10.4097,-13.7578,-10.8866,-0.7488
10.66,-0.1738,-0.5061,10.3049,-13.2702,-6.595,1.7627
10.68,-0.1165,-0.7121,10.1999,-9.3424,-7.1921,2.7463
10.7,-0.167,-0.6266,10.2514,-12.007,-8.9574,5.4751
10.72,-0.1287,-0.6441,10.0846,-11.1855,-1.8676,1.5325
10.74,-0.094,-0.6831,10.1371,-9.5548,-9.2942,3.7556
10.76,-0.1169,-0.6133,10.1048,-5.9305,-7.6904,6.7047
10.78,-0.1518,-0.6241,10.0692,-6.6024,-9.8224,4.2357
10.8,-0.1273,-0.5224,9.9725,-5.7335,-8.9415,2.5809
10.82,0.0488,-0.2855,9.9129,-0.7629,-8.0762,2.4488
10.84,0.0342,-0.5865,9.9334,-2.9609,-8.0623,3.9216
10.86,-0.1273,-0.5505,9.9285,1.5355,-8.3279,4.6117
10.88,-0.0754,-0.5141,10.0786,5.3654,-6.4024,5.7409
10.9,0.1095,-0.3673,10.0688,8.2531,-9.4089,3.2469
10.92,0.0854,-0.3436,10.1175,8.242,-7.677,1.4055
10.94,0.1008,-0.4473,10.2359,10.1652,-7.3442,4.2373
10.96,0.04,-0.4952,10.2311,3.125,-9.4266,0.3223
10.98,0.0082,-0.4044,10.3018,12.1871,-6.2313,0.2877
11.0,0.1696,-0.5137,10.3063,9.8945,-4.8569,4.0222
11.02,0.2216,-0.4158,10.2848,13.8175,-8.0967,0.9439
11.04,0.0981,-0.3111,10.3985,14.1985,-7.586,-0.1132
11.06,0.1253,-0.3087,10.2891,9.3905,-7.5882,-0.0064
11.08,0.2375,-0.4729,10.3025,10.671,-5.2463,-1.5784
11.1,0.0652,-0.433,10.338,12.7484,-6.8385,-2.1079
11.12,0.1942,-0.462,10.2282,8.8054,-9.5529,-1.7307
11.14,0.1304,-0.3751,10.2106,10.9025,-8.7286,-4.1593
11.16,0.0736,-0.3967,10.1691,6.9235,-9.2379,-2.4733
11.18,0.1126,-0.4874,10.1228,8.3993,-9.5511,-2.5345
11.2,0.0073,-0.6846,9.953,7.5322,-6.7384,-3.2609
11.22,0.0107,-0.6451,9.9456,4.6694,-10.5305,-2.0297
11.24,-0.0247,-0.5732,9.7837,1.3983,-7.5952,-5.232
11.26,-0.0194,-0.7309,9.8864,1.7024,-7.8426,-4.5569
11.28,0.0143,-0.6811,9.868,-6.0031,-7.0723,-4.0396
11.3,-0.0715,-0.7,9.9871,-3.8923,-8.5849,-1.3866
11.32,-0.2025,-0.7249,10.0071,-5.2239,-9.3278,-4.1822
11.34,0.0085,-0.6532,10.2017,-6.5726,-6.7562,-4.3311
11.36,-0.189,-0.6765,10.1569,-8.1908,-7.7527,-2.5832
11.38,-0.0896,-0.7278,10.0963,-8.713,-5.799,-0.1483
11.4,-0.1046,-0.7223,10.3053,-9.8983,-8.8521,-1.091
11.42,-0.3536,-0.6464,10.2358,-7.8799,-10.1046,-2.5435
11.44,-0.193,-0.8387,10.2937,-12.4616,-9.8826,2.606
11.46,-0.146,-0.69,10.3407,-10.9609,-5.7324,0.3343
11.48,-0.3,-0.6345,10.2854,-11.2058,-4.3494,3.0215
11.5,-0.2173,-0.6618,10.4317,-10.9841,-8.6782,0.3953
11.52,-0.0248,-0.507,10.2186,-8.2137,-8.3574,1.2786
11.54,-0.1299,-0.7646,10.23,-7.6362,-7.1289,3.0762
11.56,-0.1579,-0.603,10.1929,-9.4012,-8.3341,2.6191
11.58,-0.2012,-0.5303,10.1605,-8.92,-11.625,2.2676
11.6,-0.062,-0.6413,10.0827,-6.4969,-7.5975,3.0883
11.62,-0.011,-0.7263,9.9965,-10.2254,-8.3117,1.6158
11.64,-0.039,-0.5927,9.9029,-2.6565,-8.4681,4.7207
11.66,-0.0164,-0.4525,9.9063,-1.3651,-9.2698,5.5626
11.68,-0.0216,-0.5384,9.9713,-0.3281,-7.0906,4.2306
11.7,-0.0492,-0.4426,9.8743,5.1107,-4.4439,4.619
11.72,-0.0503,-0.6117,10.0764,9.3686,-5.7034,4.8313
11.74,-0.0163,-0.5802,10.1899,3.1068,-11.3115,1.8393
11.76,0.1666,-0.5343,10.2444,10.4863,-6.4235,2.2426
11.78,0.1449,-0.3038,10.1753,2.8785,-6.9231,0.2991
11.8,0.2161,-0.3984,10.3014,16.1169,-10.185,3.5231
11.82,0.1914,-0.4775,10.3355,13.6291,-8.131,2.0941
11.84,0.1824,-0.3627,10.4038,10.5972,-8.0281,-0.1419
11.86,0.1606,-0.3335,10.3428,6.938,-6.6156,1.2987
11.88,0.1469,-0.317,10.4141,13.1859,-2.4037,-0.0624
11.9,0.188,-0.3769,10.2854,12.8822,-8.4243,-0.5944
11.92,0.2155,-0.6202,10.2546,11.8841,-9.2513,-3.2037
11.94,0.2612,-0.5455,10.2772,14.0238,-7.691,-0.2528
11.96,0.2584,-0.4905,10.2987,12.3443,-8.3753,-4.7017
11.98,0.2826,-0.5032,10.2051,9.5951,-10.3544,-3.9269
12.0,0.0178,-0.5757,10.0945,11.5581,-6.9881,-5.8414
12.02,0.1377,-0.4401,10.0213,7.3113,-12.1282,-4.6868
12.04,0.0114,-0.5198,10.0071,1.371,-8.483,-2.5656
12.06,0.0482,-0.4227,9.8449,-2.4014,-8.5526,-1.1672
12.08,-0.0984,-0.4263,9.7902,2.1378,-8.3368,-6.9684
12.1,-0.002,-0.6528,9.858,-1.8047,-10.1277,-5.7391
12.12,-0.1377,-0.6417,9.9289,-3.0175,-3.9663,-2.1747
12.14,0.0047,-0.5539,10.1128,-1.8483,-7.8268,-2.7607
12.16,-0.2885,-0.6075,10.1378,-1.3715,-10.2259,-2.0432
12.18,-0.2221,-0.7447,10.0159,-7.965,-7.0407,-4.4601
12.2,-0.2586,-0.6833,10.1748,-7.0334,-12.8687,-0.1847
12.22,-0.2579,-0.6783,10.3303,-13.4371,-13.2797,-1.6168
12.24,-0.1944,-0.5838,10.3851,-8.8821,-5.7074,-2.6895
12.26,-0.1757,-0.8469,10.4263,-8.7104,-9.9784,2.4208
12.28,-0.1743,-0.7582,10.3465,-9.419,-7.6934,-0.0248
12.3,-0.1443,-0.653,10.3679,-13.519,-10.0897,-1.1292
12.32,-0.2656,-0.6523,10.3565,-14.4555,-4.9165,0.7047
12.34,-0.1611,-0.7414,10.3735,-7.1473,-8.9914,2.1302
12.36,-0.1997,-0.6791,10.2268,-8.8761,-8.7024,3.4464
12.38,-0.1842,-0.668,10.2554,-8.8875,-10.3107,3.2799
12.4,-0.1677,-0.6837,10.0081,-6.2397,-5.4115,2.4829
12.42,-0.186,-0.7332,9.9683,-5.5309,-5.5092,4.2152
12.44,-0.0418,-0.6336,10.0144,-8.2127,-7.6384,1.3315
12.46,-0.0975,-0.4362,9.9297,-1.8936,-8.951,3.8757
12.48,0.0418,-0.5503,9.8724,-4.1553,-5.8408,2.9762
12.5,0.0185,-0.5645,9.8062,2.4166,-8.8093,2.3164
12.52,-0.0828,-0.4338,9.8731,3.1652,-7.3979,4.5887
12.54,0.0578,-0.5316,9.9899,-2.1113,-9.7174,5.6778
12.56,0.17,-0.5509,10.0402,6.4078,-8.3956,5.7168
12.58,0.2024,-0.4065,10.2568,6.8957,-7.9049,3.2686
12.6,0.0546,-0.3574,10.0756,6.731,-5.8852,5.9333
12.62,0.2881,-0.406,10.1764,10.7505,-11.4877,2.9262
12.64,0.2962,-0.4561,10.3481,8.4272,-7.1607,0.0093
12.66,0.2049,-0.3844,10.2976,11.6968,-7.8543,2.5982
12.68,0.168,-0.4933,10.4074,11.4091,-9.8104,2.3922
12.7,0.315,-0.3984,10.3407,11.1466,-8.9057,-0.9868
12.72,0.2124,-0.4345,10.3749,16.372,-8.3556,-1.2184
12.74,0.3659,-0.4548,10.3551,11.1194,-8.5137,-0.5663
12.76,0.2167,-0.4049,10.3779,8.0392,-10.6608,0.7878
12.78,0.2896,-0.4884,10.2443,9.127,-12.0157,-3.0498
12.8,0.1275,-0.4401,10.2331,9.5259,-9.5722,-4.7649
12.82,0.1992,-0.3523,10.1173,15.2498,-11.0029,-2.5309
12.84,0.0938,-0.4164,10.07,10.698,-9.0732,-4.8281
12.86,0.0325,-0.4257,9.9528,8.0793,-9.0356,-4.2077
12.88,0.0903,-0.275,9.9726,9.1138,-8.2049,-3.9934
12.9,0.1743,-0.6292,9.7856,-0.8708,-5.0435,-2.7109
12.92,0.0165,-0.5259,9.7659,3.5204,-9.4587,-7.8919
12.94,-0.1011,-0.5566,9.8907,-2.0016,-9.0018,-6.0056
12.96,-0.0768,-0.7085,10.0283,-6.4106,-7.3536,-4.0167
12.98,-0.0283,-0.6104,10.0028,-5.6814,-4.9938,-5.3123
13.0,-0.1409,-0.6578,10.1412,-7.1786,-4.0034,-0.0803
13.02,-0.0639,-0.6017,10.1079,-10.6361,-7.2311,-1.9364
13.04,-0.0823,-0.6225,10.2909,-11.2393,-11.838,-0.5935
13.06,-0.1633,-0.6473,10.1594,-10.966,-8.4357,-4.1857
13.08,-0.1068,-0.715,10.3477,-10.5226,-8.8306,-2.5874
13.1,-0.0409,-0.8638,10.3236,-12.9482,-6.8899,1.0582
13.12,-0.2202,-0.7592,10.3717,-13.8811,-8.4155,-1.6344
13.14,-0.0628,-0.7766,10.4034,-14.5391,-7.5353,1.1547
13.16,-0.1046,-0.66,10.3843,-15.024,-8.4279,2.886
13.18,-0.1417,-0.6665,10.347,-11.5588,-7.3998,0.3271
13.2,-0.2186,-0.7118,10.2849,-9.252,-6.2716,3.277
13.22,-0.1633,-0.5866,10.276,-8.1976,-8.6737,2.589
13.24,-0.1866,-0.7246,10.2788,-3.6757,-7.8795,3.0138
13.26,-0.139,-0.6274,10.0167,-0.9204,-8.4253,1.8145
13.28,-0.0122,-0.3937,10.0371,-3.9723,-3.1716,0.7237
13.3,-0.1628,-0.5578,9.8762,-1.6187,-8.904,4.5605
13.32,-0.1008,-0.5523,9.9134,3.5902,-6.1983,1.9105
13.34,0.0124,-0.5384,9.8329,3.2483,-10.9361,2.8539
13.36,-0.1012,-0.5594,10.0266,-0.5365,-7.4194,3.5526
13.38,-0.0744,-0.4305,9.9741,2.6848,-5.0463,4.4931
13.4,0.0852,-0.5553,10.1854,8.7975,-11.6426,3.9372
13.42,0.1586,-0.444,10.14,7.9651,-7.3987,3.9454
13.44,0.1914,-0.4363,10.0979,7.19,-4.5179,3.0828
13.46,0.1894,-0.444,10.2374,6.3505,-7.2321,1.3668
13.48,0.2318,-0.5759,10.3595,7.0902,-7.5229,0.7193
13.5,0.2124,-0.3911,10.3922,9.133,-7.7095,2.9421
13.52,0.2033,-0.3445,10.2771,12.5932,-11.6551,0.3133
13.54,0.0413,-0.4336,10.4793,14.449,-7.4306,-0.0225
13.56,0.2304,-0.3564,10.2953,12.3734,-5.3808,-2.0446
13.58,0.3067,-0.4005,10.2478,11.8747,-10.0404,-0.7359
13.6,0.2238,-0.3401,10.2924,11.0356,-6.1652,-2.929
13.62,0.1204,-0.3685,10.323,6.3879,-8.5444,-2.6001
13.64,0.2008,-0.4752,10.2076,9.7267,-5.7247,-1.0468
13.66,0.0875,-0.5004,10.0713,6.7007,-7.6334,-3.8259
13.68,0.0543,-0.5047,10.1713,4.7906,-7.573,-2.3488
13.7,0.124,-0.3813,9.9269,-0.6583,-6.8202,-6.9249
13.72,0.1301,-0.5107,9.9969,6.4482,-14.3315,-2.1454
13.74,0.0956,-0.6129,9.8436,3.0969,-5.6231,-3.0058
13.76,-0.0987,-0.6643,9.851,-3.5685,-8.9219,-5.3293
13.78,0.0707,-0.5744,9.886,-6.9162,-9.2446,-2.4006
13.8,-0.1558,-0.6028,10.0187,-1.4366,-6.9993,-3.7777
13.82,-0.1718,-0.5991,10.0932,-4.4416,-8.3868,-1.651
13.84,-0.0861,-0.7629,10.2899,-7.1241,-4.7339,-4.1576
13.86,-0.0372,-0.4844,10.0953,-9.4902,-11.4587,-2.3792
13.88,-0.1862,-0.5717,10.2928,-10.0606,-8.8026,-2.465
13.9,-0.0385,-0.7181,10.2775,-14.4052,-6.5248,-1.1544
13.92,-0.1191,-0.6208,10.2524,-11.3578,-6.4963,-1.9186
13.94,-0.2533,-0.744,10.4146,-16.3025,-7.9682,-0.2146
13.96,-0.2251,-0.7792,10.4449,-16.8611,-5.7253,0.1972
13.98,-0.2088,-0.6023,10.5726,-13.6029,-7.0957,1.7802
14.0,-0.1987,-0.6112,10.391,-12.8152,-8.5818,0.9212
14.02,-0.2196,-0.8915,10.337,-15.1546,-9.3275,1.8712
14.04,-0.2685,-0.7386,10.2201,-9.5839,-10.5206,1.9068
14.06,-0.1118,-0.5347,10.2584,-9.1492,-11.4199,0.8497
14.08,-0.0914,-0.7086,10.2924,-9.8951,-7.8716,4.2465
14.1,0.0373,-0.7284,10.0723,-8.193,-8.1235,4.3025
14.12,-0.0395,-0.526,10.0103,-1.8337,-10.0413,4.6163
14.14,-0.0858,-0.5854,10.0188,-4.3761,-11.5207,4.362
14.16,-0.0062,-0.626,10.02,-4.5368,-6.539,2.6032
14.18,-0.0332,-0.5542,9.8368,1.4663,-9.991,5.4558
14.2,0.0267,-0.4532,9.8868,6.1944,-7.0222,0.998
14.22,0.1068,-0.4383,10.1262,0.4065,-12.6672,3.9688
14.24,0.0113,-0.3949,10.0509,0.8898,-8.7197,4.8679
14.26,0.036,-0.4649,10.1611,6.356,-7.5012,4.8156
14.28,0.1103,-0.4018,10.3239,4.5638,-7.1076,2.7544
14.3,0.1261,-0.5104,10.314,13.3617,-10.9351,1.1457
14.32,0.1622,-0.591,10.3276,11.1186,-9.2839,2.8714
14.34,0.147,-0.4746,10.3818,8.2993,-10.8866,0.532
14.36,0.1804,-0.3873,10.2954,11.1831,-11.6197,-1.0762
14.38,0.2049,-0.2501,10.3438,7.1943,-4.2824,-0.9778
14.4,0.112,-0.5988,10.3208,8.6703,-7.5187,-0.8776
14.42,0.3016,-0.437,10.4274,13.4229,-5.2466,-0.7114
14.44,0.2201,-0.45,10.4014,11.6002,-10.4462,-2.0283
14.46,0.0476,-0.5084,10.2902,10.3146,-6.7554,-0.8131
14.48,0.0561,-0.3196,10.291,5.9777,-7.7456,-1.323
14.5,0.1774,-0.5581,10.251,5.6008,-7.8102,-2.4029
14.52,0.1914,-0.5642,9.9844,5.5597,-5.198,-1.2039
14.54,0.1302,-0.4329,10.0622,2.9964,-7.9512,-1.0432
14.56,0.0288,-0.5092,9.8274,3.0916,-9.7064,-2.2141
14.58,0.0712,-0.4998,9.8766,-2.1203,-9.5511,-6.0454
14.6,-0.0625,-0.5271,9.8921,-1.8887,-8.092,-2.0028
14.62,0.1012,-0.6993,9.9007,-1.5684,-8.8154,-2.8396
14.64,-0.0899,-0.4976,10.0718,-9.4494,-8.5271,-2.8628
14.66,-0.1412,-0.5594,10.1435,-1.7411,-9.4951,-3.1858
14.68,-0.1143,-0.6589,10.1699,-9.9678,-5.5886,-1.6854
14.7,-0.1388,-0.708,10.2151,-5.6975,-10.2012,-0.7
14.72,-0.0748,-0.8762,10.3531,-12.21,-6.7252,-4.5903
14.74,-0.1941,-0.6956,10.3448,-11.0744,-8.9149,-1.9406
14.76,-0.3061,-0.6862,10.4006,-9.9106,-8.5023,-1.5124
14.78,-0.2541,-0.6451,10.3196,-11.0449,-7.4705,-0.2376
