time_s,Ax,Ay,Az,Gx,Gy,Gz
0.0,-0.0367,-0.6564,9.7091,0.6704,-9.841,4.3923
0.02,0.0278,-0.4501,9.8961,3.9983,-8.1049,2.371
0.04,0.0798,-0.4658,9.8814,2.6974,-12.3864,4.704
0.06,0.0693,-0.4667,9.946,5.6027,-5.8579,2.4608
0.08,-0.0245,-0.5459,10.1512,7.5917,-6.8836,3.9681
0.1,0.0737,-0.4733,10.1644,11.2091,-6.1113,1.3753
0.12,0.1781,-0.4454,10.2157,12.2045,-9.5981,1.5364
0.14,0.0927,-0.379,10.245,12.0101,-9.2951,0.1955
0.16,0.1602,-0.3381,10.3004,8.1331,-10.18,1.7715
0.18,0.0903,-0.2731,10.3504,10.2537,-8.158,1.2897
0.2,0.2939,-0.3394,10.4141,14.5366,-7.6651,0.0221
0.22,0.2127,-0.3909,10.2849,13.3734,-7.5471,-1.2039
0.24,0.2888,-0.3277,10.2439,12.7627,-6.3678,-0.6142
0.26,0.1834,-0.3597,10.2864,10.9491,-1.3787,-2.6309
0.28,0.1306,-0.5106,10.2396,12.4205,-9.373,-2.136
0.3,0.2394,-0.3534,10.2668,8.8947,-4.9794,-1.976
0.32,0.1455,-0.3579,10.1376,6.1013,-6.0298,-2.3032
0.34,0.1072,-0.3742,10.1784,4.7604,-6.9732,-0.4373
0.36,0.0202,-0.6471,10.0764,7.6105,-5.5393,-5.6494
0.38,0.0035,-0.3921,9.9327,2.7335,-8.6704,0.0814
0.4,0.0269,-0.3469,9.8606,4.5591,-6.8528,-3.0845
0.42,0.0823,-0.5523,9.7962,3.7415,-8.2561,-5.568
0.44,-0.0379,-0.5361,9.9537,-2.8486,-6.124,-1.89
0.46,-0.0473,-0.615,10.0259,-5.673,-6.7595,-1.3445
0.48,-0.1317,-0.5386,10.0514,-6.5671,-3.1679,-4.5722
0.5,-0.1206,-0.6388,10.0629,-5.6287,-9.7826,-3.4099
0.52,-0.1969,-0.5633,10.2668,-10.6467,-6.1353,0.1697
0.54,-0.2,-0.6323,10.3663,-8.1917,-8.0548,-0.849
0.56,-0.2014,-0.6828,10.1577,-12.5614,-9.1657,-1.2168
0.58,-0.2138,-0.6222,10.3485,-12.9596,-8.1763,-0.9844
0.6,-0.2606,-0.6774,10.2904,-14.5967,-6.8599,0.1
0.62,-0.1297,-0.7703,10.4435,-11.5373,-9.3467,0.3416
0.64,-0.2555,-0.7174,10.3722,-10.9628,-6.1876,0.7004
0.66,-0.1918,-0.7917,10.2621,-14.9975,-7.7038,-0.1721
0.68,-0.1179,-0.6749,10.3843,-12.9443,-7.3581,3.6426
0.7,-0.2324,-0.6311,10.3204,-11.1122,-6.6205,3.1687
0.72,-0.0421,-0.6194,10.0707,-8.7674,-6.4651,1.0372
0.74,-0.1338,-0.5748,10.1482,-5.2772,-7.4467,4.0284
0.76,0.0762,-0.5139,10.1401,-6.4223,-8.9761,1.2411
0.78,-0.0958,-0.7086,10.1398,-0.3528,-5.5794,4.1555
0.8,-0.208,-0.5543,10.0773,-4.1341,-7.484,3.9384
0.82,-0.0978,-0.5338,9.9436,-2.1143,-7.6126,3.3797
0.84,-0.054,-0.5777,9.8479,-2.1091,-3.4573,4.2278
0.86,0.148,-0.6652,9.8486,2.2221,-4.6239,2.7461
0.88,0.138,-0.5306,10.0731,4.7697,-7.6166,5.582
0.9,0.0545,-0.5573,10.0946,2.4666,-4.2904,4.3058
0.92,0.1135,-0.3838,10.1697,10.491,-8.9437,6.963
0.94,0.0596,-0.4521,10.1616,8.8968,-6.9272,1.9771
0.96,0.1435,-0.3767,10.0921,10.3588,-8.0566,2.0743
0.98,0.2054,-0.4816,10.3173,16.555,-10.5791,1.5343
1.0,0.1978,-0.395,10.3655,16.0038,-7.711,1.2849
1.02,0.2792,-0.459,10.2986,13.9661,-6.3303,-0.1982
1.04,0.2458,-0.4769,10.307,11.895,-9.2292,1.1066
1.06,0.1426,-0.3089,10.4332,14.0167,-4.8757,-2.282
1.08,0.3378,-0.4913,10.3668,12.3043,-7.7195,-1.9318
1.1,0.1562,-0.3368,10.2147,11.41,-6.6855,-3.5727
1.12,0.1567,-0.4578,10.247,9.9605,-5.8161,-3.6303
1.14,0.1035,-0.3994,10.3251,12.3021,-9.2628,-4.1212
1.16,0.2609,-0.6841,10.0349,4.2327,-8.1925,-1.6745
1.18,-0.0148,-0.4675,10.1456,7.5977,-8.6587,-3.7444
1.2,0.0406,-0.4508,10.0381,6.5144,-8.7937,-2.8321
1.22,0.0569,-0.465,9.928,7.5399,-10.6199,-4.4915
1.24,0.0034,-0.5509,9.9004,-2.7453,-6.9202,-4.4063
1.26,0.0536,-0.4025,9.8802,-0.3192,-11.4443,-3.3631
1.28,-0.0989,-0.5319,9.9757,-4.3422,-12.7621,-5.9259
1.3,-0.1515,-0.5887,10.0044,-3.339,-8.1959,-5.0046
1.32,-0.1079,-0.5911,10.1237,-6.3074,-7.6259,-4.5679
1.34,-0.0454,-0.7104,10.2386,-5.6859,-8.1144,-0.9141
1.36,0.0032,-0.8096,10.1208,-8.1695,-6.2571,-4.5181
1.38,-0.1426,-0.5871,10.1888,-8.6,-9.6504,-2.4232
1.4,-0.2967,-0.7676,10.2185,-14.7402,-8.6426,-2.0499
1.42,-0.1101,-0.5607,10.3035,-15.0488,-5.1238,1.0693
1.44,-0.2196,-0.6347,10.29,-15.3782,-5.7615,-0.5175
1.46,-0.1662,-0.7393,10.4235,-14.1332,-8.6112,-0.0117
1.48,-0.1458,-0.774,10.3201,-16.4401,-5.8724,-0.3562
1.5,-0.1905,-0.7863,10.316,-8.7912,-8.819,0.1937
1.52,-0.0371,-0.7874,10.2699,-9.6323,-9.0647,0.5546
1.54,-0.2535,-0.6601,10.3052,-12.3993,-7.9969,2.935
1.56,-0.0343,-0.5987,10.2313,-7.5667,-4.4301,4.1181
1.58,-0.1854,-0.6557,10.1463,-9.6366,-8.7496,3.0296
1.6,-0.0543,-0.4875,10.0649,-8.8105,-9.7795,4.6937
1.62,-0.1097,-0.6177,10.0842,0.6034,-6.7892,4.4245
1.64,-0.1346,-0.6445,9.9646,1.1311,-11.172,2.7002
1.66,-0.019,-0.5455,9.891,0.6182,-8.3669,3.5669
1.68,0.0349,-0.5645,9.8668,-0.532,-6.7731,5.3971
1.7,0.0762,-0.5546,9.897,2.8391,-8.8349,7.4755
1.72,0.0086,-0.4591,10.0164,6.9595,-8.5638,6.4777
1.74,0.0337,-0.3888,10.1636,6.2819,-4.8164,2.5808
1.76,0.1384,-0.4249,10.0745,13.8749,-6.8063,1.6589
1.78,0.0924,-0.3647,10.2807,8.4284,-9.9261,2.0181
1.8,0.3361,-0.5108,10.285,7.9141,-8.4118,1.5571
1.82,0.0697,-0.36,10.2871,11.9267,-7.7544,0.0214
1.84,0.255,-0.4632,10.4591,14.8411,-6.9977,0.5741
1.86,0.3249,-0.4301,10.465,16.4734,-6.9994,-2.1294
1.88,0.1177,-0.231,10.2732,10.4548,-8.8094,1.1964
1.9,0.2345,-0.5612,10.4222,13.9228,-7.6861,-1.911
1.92,0.2731,-0.4022,10.3179,8.33,-7.882,-1.5628
1.94,0.1474,-0.4723,10.3516,14.26,-5.5966,-3.669
1.96,0.1336,-0.407,10.2383,9.1685,-9.5325,-3.607
1.98,0.0501,-0.4725,10.159,11.3107,-7.1918,-2.5141
2.0,0.0402,-0.4943,10.2209,6.51,-10.3947,-3.502
2.02,0.1595,-0.4408,10.0573,8.8208,-8.8779,-4.9792
2.04,-0.009,-0.4945,9.9574,6.4042,-9.1024,-5.4241
2.06,-0.0388,-0.4842,9.9421,-0.6092,-6.4493,-2.87
2.08,0.0256,-0.498,9.6936,-1.7158,-9.9654,-2.3823
2.1,-0.0892,-0.4866,9.8869,-2.3664,-4.8703,-6.759
2.12,-0.0806,-0.4705,9.8888,-8.4103,-10.8242,-2.2881
2.14,-0.1112,-0.6244,9.9552,-5.9323,-5.3644,-2.546
2.16,-0.0997,-0.7242,10.1493,-8.9657,-8.8158,1.0816
2.18,-0.1905,-0.6756,10.1496,-11.2606,-9.6939,-2.106
2.2,-0.2265,-0.5824,10.2142,-11.5529,-8.1799,-2.2457
2.22,-0.0975,-0.4569,10.3817,-10.9891,-8.2959,-1.1263
2.24,-0.2197,-0.6538,10.2681,-14.1721,-9.5643,-2.2412
2.26,-0.1535,-0.664,10.4124,-13.7936,-7.0602,-2.4656
2.28,-0.1289,-0.6758,10.4128,-12.2586,-8.8552,-0.9981
2.3,-0.2125,-0.5878,10.3982,-11.3048,-7.7659,-2.4707
2.32,-0.298,-0.7236,10.3626,-10.1649,-6.7464,1.68
2.34,-0.3528,-0.6483,10.328,-11.1546,-10.4627,2.8375
2.36,-0.1116,-0.5185,10.3362,-7.9094,-7.0107,3.1477
2.38,-0.0409,-0.7118,10.2327,-11.0695,-8.8985,2.8104
2.4,-0.0466,-0.6491,10.2113,-9.5221,-8.225,2.1444
2.42,-0.0734,-0.7705,10.1804,-6.1793,-9.0858,4.1767
2.44,-0.098,-0.6224,10.1156,-6.3578,-6.5559,3.343
2.46,-0.0827,-0.5413,9.9826,-5.9558,-7.2701,1.5932
2.48,0.0472,-0.5371,9.8809,-3.4181,-8.512,2.0693
2.5,0.035,-0.5024,9.8564,1.886,-6.7759,3.2097
2.52,-0.0342,-0.5672,9.9226,3.4979,-10.6237,4.6499
2.54,0.1394,-0.4519,10.0918,5.8977,-7.0489,3.0681
2.56,0.058,-0.5758,10.0654,4.9946,-7.9298,1.9647
2.58,0.221,-0.4637,10.0488,6.213,-9.4799,-1.0757
2.6,0.0576,-0.4959,10.2325,6.0455,-7.49,-0.6366
2.62,0.1389,-0.4238,10.3232,10.9961,-6.6754,1.6846
2.64,0.1998,-0.3636,10.2887,11.1959,-5.326,1.3881
2.66,0.1948,-0.3664,10.3652,11.4477,-10.3964,2.6643
2.68,0.1938,-0.3821,10.1583,6.816,-9.8658,3.0326
2.7,0.1955,-0.4452,10.438,12.4764,-7.3352,2.498
2.72,0.1637,-0.4042,10.3155,11.4387,-8.0871,0.0088
2.74,0.1372,-0.3861,10.271,10.8495,-7.8804,-0.5164
2.76,0.0812,-0.1971,10.2591,14.7489,-7.731,-2.2914
2.78,0.1056,-0.4186,10.3391,8.2654,-8.604,-3.8136
2.8,0.1857,-0.4346,10.2809,8.7414,-10.9465,-3.2929
2.82,0.1023,-0.3388,10.1699,13.1339,-7.4148,-2.1768
2.84,-0.0715,-0.5173,10.1078,11.1602,-5.9563,-3.2699
2.86,0.1129,-0.4967,9.9998,0.4278,-8.707,-5.2862
2.88,0.0973,-0.451,9.9914,0.4224,-6.6005,-7.0055
2.9,0.0952,-0.5477,9.9148,-3.8056,-8.0567,-3.6302
2.92,0.089,-0.503,9.8368,-1.6583,-10.0366,-5.7716
2.94,0.0974,-0.5844,9.9789,0.2487,-6.0973,-3.4469
2.96,-0.0651,-0.6154,10.0426,-4.8141,-9.8879,-5.7196
2.98,-0.1291,-0.5915,10.0287,-4.1233,-7.8365,-3.2894
3.0,-0.0735,-0.6228,10.138,-7.969,-5.3875,-2.801
3.02,-0.15,-0.6009,10.1109,-10.5444,-7.8161,-2.8521
3.04,-0.202,-0.5992,10.1923,-10.1019,-6.4404,-0.822
3.06,-0.2047,-0.6569,10.3282,-11.2876,-9.2725,3.6722
3.08,-0.3064,-0.655,10.3585,-14.8519,-4.384,-0.0905
3.1,-0.2139,-0.7066,10.3945,-12.8874,-8.2871,-0.5698
3.12,-0.3515,-0.6349,10.3517,-14.8126,-8.7053,-0.4277
3.14,-0.2721,-0.6636,10.3498,-10.5353,-9.0699,-0.3709
3.16,-0.1625,-0.7056,10.4276,-11.0191,-7.4157,-1.9177
3.18,-0.0821,-0.7126,10.3485,-14.0227,-7.8699,1.4227
3.2,-0.0898,-0.6426,10.2881,-6.9628,-7.5409,2.7981
3.22,-0.1532,-0.7921,10.2682,-6.7832,-11.7065,4.2449
3.24,-0.1754,-0.7365,10.1876,-6.8218,-9.2077,0.5228
3.26,-0.1006,-0.7123,10.1131,-6.8346,-4.1637,3.9207
3.28,0.0126,-0.6786,10.0024,-3.5475,-6.9498,4.3949
3.3,-0.0752,-0.4389,9.92,-6.6642,-9.8478,4.5379
3.32,-0.0952,-0.4981,9.9273,0.2068,-7.4086,3.2876
3.34,0.0707,-0.5803,9.8455,6.4229,-10.844,4.0742
3.36,-0.0207,-0.5792,9.9101,5.1737,-6.2472,2.8949
3.38,0.0094,-0.4601,9.948,5.2798,-4.6796,2.6867
3.4,0.2044,-0.506,10.0926,9.6044,-4.4442,5.5257
3.42,0.1327,-0.5984,10.2707,5.7734,-7.6043,4.4122
3.44,0.1654,-0.4118,10.2523,8.5676,-9.8779,4.6348
3.46,0.203,-0.4746,10.351,9.7477,-6.8548,3.2627
3.48,0.1893,-0.4078,10.2664,10.0115,-7.4436,1.6413
3.5,0.3175,-0.3572,10.4004,13.456,-9.9459,0.6524
3.52,0.2492,-0.3716,10.3065,10.7618,-9.2484,-0.9581
3.54,0.2104,-0.3183,10.3787,14.6509,-7.994,-0.358
3.56,0.1139,-0.376,10.3573,10.7972,-10.2629,-1.0203
3.58,0.3387,-0.3677,10.2939,14.6896,-0.8501,-2.5921
3.6,0.1558,-0.2114,10.4081,14.4209,-7.4537,-1.7624
3.62,0.1513,-0.5335,10.2196,16.2451,-5.8163,0.0052
3.64,0.1019,-0.5278,10.2119,8.758,-6.722,-0.226
3.66,0.1978,-0.3495,10.1845,5.5102,-6.4109,-3.8657
3.68,-0.0159,-0.5908,10.0168,9.2228,-7.3485,-3.753
3.7,0.062,-0.5313,9.9714,5.8089,-7.3775,-5.1071
3.72,0.1292,-0.4877,9.9857,4.4767,-6.9452,-3.8967
3.74,0.066,-0.5221,9.8375,-0.6682,-7.7621,-3.4422
3.76,-0.0589,-0.3494,9.8233,-4.1895,-9.1441,-3.8235
3.78,0.021,-0.5479,10.0353,-0.5854,-6.9891,-3.9597
3.8,0.0554,-0.5434,10.0938,-8.538,-9.9718,-2.7599
3.82,-0.0855,-0.5899,10.0186,-5.9293,-7.0983,-2.1685
3.84,-0.2398,-0.6821,10.1544,-6.8045,-7.495,-1.837
3.86,-0.2083,-0.7012,10.1906,-8.5922,-8.5893,-3.44
3.88,-0.1255,-0.5223,10.2951,-16.4904,-6.9778,-2.8028
3.9,-0.1456,-0.5668,10.2396,-8.2339,-6.1117,-0.2299
3.92,-0.0385,-0.7387,10.3922,-17.8147,-6.7349,-0.6318
3.94,-0.2207,-0.542,10.4136,-11.6621,-3.7059,1.138
3.96,-0.2299,-0.6809,10.3973,-10.317,-6.402,-0.06
3.98,-0.2479,-0.72,10.3123,-11.3143,-6.6538,3.7641
4.0,-0.1324,-0.681,10.3643,-10.3499,-8.7602,-0.0869
4.02,-0.1527,-0.5646,10.427,-12.3446,-8.6412,4.7911
4.04,-0.2119,-0.5961,10.2288,-12.215,-9.1237,3.4727
4.06,-0.0331,-0.5009,10.1994,-4.5618,-10.5558,2.6991
4.08,0.0286,-0.6733,10.1537,-8.2959,-5.7198,8.2992
4.1,-0.142,-0.5404,9.9703,-9.3791,-4.3449,3.5833
4.12,0.0416,-0.5676,10.1108,-2.2378,-12.5753,2.2541
4.14,-0.0683,-0.6414,9.9648,-2.6535,-9.9314,4.6452
4.16,0.1193,-0.4532,9.8416,-4.7054,-8.0266,1.6998
4.18,-0.0176,-0.5022,9.8174,0.1514,-8.9997,4.0299
4.2,0.0754,-0.4967,9.9777,6.704,-10.7886,2.1902
4.22,0.1136,-0.3879,9.9931,4.0651,-9.1492,3.9916
4.24,0.1608,-0.5932,10.1615,4.6632,-11.4126,3.2231
4.26,0.1795,-0.5039,10.0888,4.5553,-7.3376,3.0928
4.28,0.0773,-0.4673,10.2021,11.6809,-6.388,2.7686
4.3,0.2145,-0.3953,10.1108,10.1506,-5.8934,4.5808
4.32,0.1981,-0.4735,10.31,5.2247,-7.7975,2.9331
4.34,0.2777,-0.3775,10.3024,15.476,-7.95,3.7319
4.36,0.1341,-0.5284,10.374,9.5504,-8.8715,0.9783
4.38,0.1225,-0.3531,10.4097,14.7748,-10.151,-1.3161
4.4,0.09,-0.3796,10.2625,11.7347,-8.6321,1.8591
4.42,0.2132,-0.4871,10.2823,7.2229,-6.1185,-3.0382
4.44,0.0972,-0.5408,10.2267,9.8061,-7.1363,-3.1449
4.46,0.1989,-0.3313,10.2085,8.3832,-11.683,-2.6743
4.48,0.1851,-0.3421,10.1521,14.8236,-8.8182,-0.0694
4.5,0.1784,-0.5172,10.2023,9.9257,-8.4721,-2.733
4.52,0.0268,-0.5645,10.038,4.8833,-8.3337,-5.0461
4.54,0.0361,-0.4211,10.0009,4.8051,-14.6572,-5.1503
4.56,0.0486,-0.5418,9.922,-2.3184,-10.9217,-3.1831
4.58,-0.1671,-0.6193,9.8921,2.059,-9.6178,-2.8156
4.6,0.0271,-0.4938,9.7918,-2.5844,-11.0352,-4.2002
4.62,-0.0177,-0.6158,9.9321,-2.8317,-6.6523,-6.5687
4.64,-0.0886,-0.5414,10.1887,-7.6837,-4.4058,-4.987
4.66,-0.1619,-0.6804,10.1557,-3.5418,-9.0433,-4.8693
4.68,-0.1863,-0.4839,10.2694,-10.3955,-3.4488,-4.5971
4.7,-0.1538,-0.7976,10.2098,-8.4353,-11.4981,-2.6108
4.72,-0.2299,-0.6656,10.3163,-9.8979,-5.7794,-3.9859
4.74,-0.2083,-0.7284,10.4231,-10.4789,-6.7136,0.7185
4.76,-0.0899,-0.5564,10.3673,-6.8215,-8.683,-0.3875
4.78,-0.1919,-0.5624,10.2927,-14.4135,-5.231,-0.5279
4.8,-0.2472,-0.6022,10.4394,-16.167,-5.2593,-0.2946
4.82,-0.2155,-0.7706,10.3422,-9.3505,-10.2381,0.7802
4.84,-0.1741,-0.5547,10.2363,-13.703,-10.6956,0.5005
4.86,-0.2583,-0.6883,10.234,-5.129,-7.3248,2.732
4.88,-0.1153,-0.5966,10.2512,-10.9784,-10.4194,0.5221
4.9,-0.1556,-0.5524,10.1644,-6.2474,-8.2548,3.7738
4.92,-0.0567,-0.6193,10.2174,-7.3791,-9.1954,3.5719
4.94,-0.0605,-0.755,10.1128,-3.0765,-10.2769,1.021
4.96,-0.1298,-0.6283,9.9739,-1.1777,-7.0289,2.9953
4.98,0.0673,-0.5523,9.8919,-3.2075,-5.3372,4.6197
5.0,-0.0892,-0.51,9.8456,-1.805,-3.9255,3.8265
5.02,-0.0434,-0.5152,9.9764,5.6414,-8.5973,3.3451
5.04,0.0815,-0.5385,10.0386,0.8666,-10.5171,1.6698
5.06,0.0762,-0.3831,10.0002,7.2984,-7.7374,3.1545
5.08,0.0833,-0.5082,10.0047,10.6904,-10.9533,3.0635
5.1,0.2021,-0.4211,10.0742,7.8802,-8.7586,1.6901
5.12,0.0044,-0.435,10.2851,9.6584,-7.7696,0.6326
5.14,0.1144,-0.4424,10.2709,11.8694,-10.2416,1.8201
5.16,0.1791,-0.4964,10.2022,12.4412,-6.5959,1.827
5.18,0.1953,-0.4026,10.2935,14.0138,-7.6492,-0.037
5.2,0.1832,-0.4037,10.3613,13.0497,-5.7188,1.2836
5.22,0.1483,-0.5088,10.3065,12.7251,-4.6451,-4.0558
5.24,0.1766,-0.4198,10.3348,15.3149,-8.1785,1.7496
5.26,0.1485,-0.5211,10.3521,11.774,-9.5345,0.9127
5.28,0.204,-0.4289,10.229,14.604,-8.8921,-2.7349
5.3,0.2259,-0.5117,10.271,3.3757,-10.8045,-3.3846
5.32,0.1469,-0.4141,10.1483,7.593,-4.2309,-4.4328
5.34,0.2558,-0.4952,10.0782,5.6471,-6.0972,-2.6279
5.36,0.0106,-0.5659,10.0543,3.8854,-7.626,-4.438
5.38,0.0595,-0.6695,9.9515,7.6921,-4.5432,-2.9189
5.4,0.0094,-0.5389,9.8992,-1.229,-5.0673,-2.8485
5.42,0.0236,-0.3992,9.8302,-2.7445,-10.8662,-3.5541
5.44,-0.0582,-0.5869,9.9113,-4.7344,-5.1287,-4.9588
5.46,0.0037,-0.5675,10.013,-3.6554,-9.2121,-4.0242
5.48,-0.0938,-0.6357,10.054,-6.5855,-8.4421,-2.3816
5.5,-0.1311,-0.6336,10.1547,-4.1761,-11.0759,-4.237
5.52,-0.1227,-0.602,10.1021,-7.2772,-6.5985,-4.0505
5.54,-0.222,-0.5743,10.2785,-7.897,-8.1877,-2.931
5.56,-0.1507,-0.6959,10.376,-13.8078,-6.356,-0.9389
5.58,-0.2243,-0.7045,10.3538,-13.4774,-8.5973,-2.5913
5.6,-0.2484,-0.7655,10.2366,-12.9023,-8.7334,-4.3853
5.62,-0.2695,-0.6494,10.3533,-11.4694,-3.2834,-1.9278
5.64,-0.1434,-0.7017,10.3589,-14.9108,-6.7593,-0.8661
5.66,-0.0604,-0.7329,10.4011,-13.9928,-10.9574,1.1599
5.68,-0.2645,-0.6427,10.3493,-7.7797,-9.2665,0.9715
5.7,-0.1742,-0.5323,10.1764,-15.624,-8.044,3.1938
5.72,-0.2558,-0.6347,10.2009,-6.4849,-7.2418,1.604
5.74,-0.2213,-0.7195,10.1625,-9.2775,-7.9986,2.5296
5.76,-0.0728,-0.7117,10.1748,-9.3306,-10.084,1.0846
5.78,-0.0627,-0.6184,10.1638,-4.7375,-8.3047,3.5968
5.8,-0.0249,-0.5728,9.9468,-0.4219,-8.5566,3.501
5.82,-0.1425,-0.5745,9.9401,-3.6178,-10.9871,3.4093
5.84,0.0129,-0.6329,9.865,1.0135,-8.0352,4.1134
5.86,0.0088,-0.5722,9.9051,0.5881,-9.6483,6.7312
5.88,0.0897,-0.6504,10.0403,6.0405,-4.4124,6.7638
5.9,0.1179,-0.4933,10.0521,3.748,-7.1785,3.3394
5.92,0.0612,-0.4904,10.1033,3.2512,-11.4917,5.0285
5.94,-0.0179,-0.4717,10.2557,9.6277,-4.926,4.2076
5.96,0.2304,-0.2825,10.26,9.7991,-10.3453,1.9389
5.98,0.1779,-0.5323,10.3767,8.9755,-9.0531,4.3115
6.0,0.1625,-0.3247,10.2997,11.9103,-9.7746,1.1769
6.02,0.3151,-0.4444,10.4416,11.0025,-5.0405,1.838
6.04,0.1396,-0.4292,10.3374,11.7808,-3.5541,1.0168
6.06,0.2218,-0.3164,10.4472,7.3293,-6.4128,-2.1651
6.08,0.3029,-0.4215,10.3496,17.7623,-8.8205,-0.9457
6.1,0.2236,-0.4114,10.3536,7.5431,-7.2306,-0.1555
6.12,0.0915,-0.5585,10.2309,9.1387,-6.3891,-2.7115
6.14,0.1255,-0.5088,10.2613,9.7178,-8.4454,-0.5103
6.16,-0.0328,-0.45,10.0489,9.5638,-6.2313,-1.6216
6.18,0.1188,-0.6194,10.1541,4.8602,-7.0759,-3.5753
6.2,0.112,-0.5036,10.0166,0.2675,-6.136,-3.2941
6.22,0.0598,-0.6362,9.8582,8.9197,-9.6777,-4.5686
6.24,-0.0275,-0.432,9.8256,-1.6682,-7.8061,-5.1217
6.26,-0.0879,-0.471,9.9029,-2.2862,-8.4314,-5.4863
6.28,-0.0529,-0.625,9.9,-1.2696,-8.3856,-3.6659
6.3,-0.0398,-0.689,10.088,-4.2675,-12.8533,-3.0141
6.32,-0.0629,-0.7722,10.0906,-5.4623,-13.2474,-2.3318
6.34,-0.0233,-0.54,10.1484,-12.1252,-7.4934,-3.9787
6.36,-0.2591,-0.5474,10.114,-9.4515,-7.3969,-1.7191
6.38,-0.1222,-0.5846,10.3685,-8.3289,-6.7974,-0.5837
6.4,-0.1852,-0.7519,10.304,-10.7385,-9.7937,-3.6653
6.42,-0.3199,-0.9273,10.2841,-11.8826,-10.7252,-1.2219
6.44,-0.1873,-0.7564,10.4059,-9.117,-9.7384,-2.9673
6.46,-0.1853,-0.5709,10.4043,-12.9974,-5.7449,1.1989
6.48,-0.1383,-0.6999,10.315,-15.89,-11.4942,2.1717
6.5,-0.1909,-0.7579,10.2932,-10.4259,-6.933,0.224
6.52,-0.1621,-0.8749,10.2688,-5.5543,-9.1518,2.3828
6.54,-0.2548,-0.619,10.2479,-12.2245,-7.9077,-0.577
6.56,-0.1671,-0.6559,10.218,-5.9943,-2.5507,3.1835
6.58,-0.0808,-0.6835,10.167,-6.3518,-6.2234,2.3273
6.6,-0.0472,-0.6794,10.0115,-3.1319,-11.0765,3.4963
6.62,-0.1296,-0.6174,9.9939,-4.2932,-6.2685,5.169
6.64,-0.1257,-0.635,10.0369,-0.7395,-10.15,3.8985
6.66,0.0153,-0.5222,9.8873,0.2463,-4.6663,4.2762
6.68,0.0907,-0.5666,9.8318,1.5439,-6.9358,2.6222
6.7,0.1195,-0.5161,9.9011,3.6692,-9.5798,6.6074
6.72,0.0376,-0.624,10.0509,4.5192,-8.2444,4.0421
6.74,-0.0163,-0.497,10.0778,8.0866,-6.4872,3.9155
6.76,0.1094,-0.4337,10.25,5.1006,-12.3606,1.1281
6.78,0.1669,-0.4139,10.1311,6.1069,-7.4451,3.1409
6.8,0.2212,-0.3653,10.3483,11.355,-11.9502,2.0476
6.82,0.1544,-0.5525,10.3223,11.4352,-6.0472,2.2751
6.84,0.0547,-0.4472,10.4033,10.5729,-7.9761,1.848
6.86,0.1846,-0.3698,10.3036,10.6198,-8.0949,3.5476
6.88,0.2183,-0.2476,10.3074,18.1904,-7.8983,1.3237
6.9,0.2383,-0.3421,10.4183,10.2309,-8.7384,-1.7306
6.92,0.1868,-0.5375,10.3576,9.9148,-9.9546,0.8671
6.94,0.2527,-0.3695,10.2826,9.1804,-8.3255,-0.6898
6.96,0.1326,-0.4145,10.2594,9.0545,-3.6807,-3.0332
6.98,0.114,-0.5444,10.1915,3.5044,-7.7662,-3.4797
7.0,0.0331,-0.5442,10.0662,5.6539,-11.1085,1.3948
7.02,0.2124,-0.489,10.0594,5.9605,-7.3166,-3.2838
7.04,-0.0018,-0.4921,10.0269,4.4797,-11.2556,-3.2247
7.06,0.0645,-0.4135,9.9161,2.9255,-6.5201,-2.0327
7.08,0.0373,-0.6163,9.9414,3.744,-10.6835,-4.3252
7.1,0.028,-0.5357,9.8343,1.9874,-7.2506,-3.7178
7.12,-0.111,-0.6826,9.9668,1.2361,-9.3042,-4.1411
7.14,-0.0165,-0.59,10.0629,-8.4411,-6.5404,-6.0952
7.16,-0.1897,-0.6898,10.1657,-7.0809,-10.1802,-2.942
7.18,-0.0674,-0.6646,10.2705,-9.2676,-3.9409,-4.3681
7.2,-0.1632,-0.6787,10.1904,-10.3991,-6.5216,-1.2449
7.22,-0.1092,-0.6929,10.3805,-10.5383,-7.3089,-0.6718
7.24,-0.278,-0.751,10.3342,-9.379,-5.3462,-1.2254
7.26,-0.0692,-0.859,10.338,-14.0105,-8.2411,-1.7338
7.28,-0.2401,-0.6524,10.4204,-14.8743,-7.5573,-1.2018
7.3,-0.2757,-0.5647,10.3826,-11.5042,-7.8129,1.741
7.32,-0.1764,-0.6255,10.3062,-7.7722,-7.0896,-0.0124
7.34,-0.2024,-0.8727,10.3365,-8.9609,-4.5499,3.2942
7.36,-0.1469,-0.7028,10.351,-7.8777,-7.9595,2.7932
7.38,-0.1025,-0.4442,10.2753,-11.8945,-8.2527,2.0083
7.4,-0.064,-0.4745,10.2794,-9.6009,-9.9417,4.4582
7.42,-0.116,-0.6809,10.1313,-7.7266,-8.4907,3.2557
7.44,-0.1313,-0.6401,10.0418,-8.1988,-9.1934,3.0702
7.46,-0.0552,-0.5703,9.9609,-4.304,-10.8796,3.5979
7.48,0.0575,-0.5155,9.7201,-4.7674,-12.0654,5.5625
7.5,0.0729,-0.4155,9.8416,-2.6804,-9.892,3.4186
7.52,0.1296,-0.5901,9.8431,-0.5635,-8.1353,4.9626
7.54,-0.039,-0.2575,10.0196,-1.5278,-13.0793,5.8624
7.56,0.0894,-0.2932,9.9735,5.1348,-9.6231,5.0258
7.58,0.1901,-0.4699,10.0618,2.9128,-8.4993,3.4544
7.6,0.0684,-0.3962,10.2326,8.8579,-9.3945,3.5018
7.62,0.2493,-0.4831,10.3101,8.2163,-4.8156,2.246
7.64,0.1664,-0.3561,10.2356,4.8083,-10.6336,0.8233
7.66,0.0448,-0.3808,10.2274,9.1056,-6.7169,0.7912
7.68,0.2761,-0.2848,10.4207,16.0933,-8.226,2.8243
7.7,0.2573,-0.3847,10.2993,14.1148,-7.4146,-2.4688
7.72,0.2198,-0.4469,10.3112,8.2435,-9.4348,1.4458
7.74,0.1423,-0.3296,10.281,13.1859,-6.4888,-1.3347
7.76,0.2101,-0.5603,10.2744,10.6412,-8.8668,-0.5002
7.78,0.1755,-0.3334,10.3287,5.8993,-8.711,-2.8107
7.8,0.1116,-0.4064,10.1973,11.4937,-8.7633,-2.5742
7.82,0.1914,-0.4859,10.2161,5.0776,-8.7141,-2.6343
7.84,0.0921,-0.5335,10.059,7.6683,-10.3145,-6.3902
7.86,0.1833,-0.4435,10.0677,1.2264,-8.6241,-3.5529
7.88,0.0881,-0.4984,9.9597,3.6976,-6.6834,-1.8828
7.9,0.0545,-0.5958,9.9213,-1.3247,-3.4977,-3.724
7.92,-0.1412,-0.5744,9.8818,4.3413,-11.0749,-5.4073
7.94,-0.096,-0.4943,9.8932,-0.4512,-4.7628,-3.6535
7.96,-0.1892,-0.6292,9.9659,-0.2927,-8.4598,-5.2519
7.98,-0.0852,-0.7174,10.0098,-5.4559,-8.0276,-5.1707
8.0,-0.1541,-0.6443,10.0712,-10.6817,-10.4577,-4.5473
8.02,-0.2422,-0.7877,10.1368,-9.8167,-6.6392,-3.2438
8.04,-0.1491,-0.7253,10.1999,-6.8888,-7.6581,-2.6994
8.06,-0.2485,-0.6658,10.3119,-12.356,-6.4292,1.4007
8.08,-0.2854,-0.7407,10.3801,-10.5644,-7.7629,-2.034
8.1,-0.0681,-0.721,10.38,-7.3613,-6.4417,-1.1757
8.12,-0.1615,-0.7371,10.4463,-9.7232,-8.845,-4.1781
8.14,-0.2563,-0.6936,10.4429,-13.3059,-3.4198,2.8367
8.16,-0.2647,-0.5909,10.3743,-11.4069,-5.0529,-0.6856
8.18,-0.1231,-0.6657,10.2611,-11.2679,-6.6573,0.5415
8.2,-0.1297,-0.708,10.3307,-8.7696,-5.6648,1.6563
8.22,-0.1932,-0.8348,10.154,-8.4822,-9.9895,2.162
8.24,-0.0634,-0.6633,10.163,-7.2969,-8.2844,2.4331
8.26,-0.2299,-0.5498,10.1156,-4.9744,-7.7536,4.6661
8.28,-0.005,-0.5629,10.0901,-2.9357,-7.2008,2.1814
8.3,-0.0531,-0.4863,10.0101,-1.649,-6.5121,2.6277
8.32,-0.1252,-0.7235,9.8972,-6.2259,-7.4873,1.5117
8.34,-0.0622,-0.5948,9.8328,-2.5959,-6.682,5.1929
8.36,0.0493,-0.4662,9.8673,0.8852,-10.2441,5.6865
8.38,-0.0364,-0.5228,9.9155,3.4981,-7.9007,2.4464
8.4,0.0623,-0.2741,10.1008,4.0351,-9.6751,3.8206
8.42,0.0776,-0.5914,10.163,9.0924,-9.0104,1.7064
8.44,0.176,-0.461,10.1641,4.3671,-10.0934,2.3722
8.46,0.1948,-0.3901,10.2328,10.2034,-7.4156,2.8755
8.48,0.0782,-0.2669,10.3109,6.03,-10.4735,2.5424
8.5,0.1258,-0.4551,10.3294,10.9303,-8.6638,0.2116
8.52,0.1497,-0.5721,10.2271,10.4786,-6.2671,1.406
8.54,0.2178,-0.3438,10.2457,9.9919,-6.0232,-0.2483
8.56,0.2559,-0.3332,10.2584,13.1417,-5.0163,-1.3971
8.58,0.1724,-0.4064,10.3712,11.6414,-6.1332,-5.0032
8.6,0.2002,-0.5199,10.2154,11.1898,-10.203,-1.8914
8.62,0.1595,-0.4547,10.181,8.2473,-3.4203,-4.2929
8.64,0.1124,-0.5356,10.2498,5.95,-6.259,0.4395
8.66,0.1042,-0.5025,10.1453,7.0451,-7.3136,-5.9997
8.68,0.0161,-0.4708,10.1999,7.3004,-11.0093,-3.2695
8.7,-0.0189,-0.5174,10.0169,4.8321,-9.7502,-5.7565
8.72,-0.0062,-0.5206,9.9776,2.4044,-7.7056,-3.7936
8.74,0.0526,-0.5678,9.8868,-0.4909,-9.3006,-4.0322
8.76,-0.1106,-0.6511,9.9436,4.3728,-10.497,-2.1963
8.78,-0.1866,-0.565,9.9886,-3.8423,-5.5791,-5.4955
8.8,-0.0527,-0.643,9.9522,-7.6279,-6.3104,-3.539
8.82,-0.185,-0.5373,10.1614,-9.5826,-8.959,-0.4964
8.84,-0.0539,-0.7689,10.1569,-12.8347,-9.3751,-3.6651
8.86,-0.1495,-0.6511,10.3508,-3.0325,-8.1286,-3.7665
8.88,-0.1514,-0.7286,10.1108,-7.9786,-4.0783,-2.814
8.9,-0.1471,-0.7385,10.2683,-14.1398,-7.0486,-1.4199
8.92,-0.1259,-0.7413,10.4141,-13.2946,-9.9324,-2.3018
8.94,-0.1105,-0.81,10.3764,-16.238,-10.8119,0.9204
8.96,-0.2202,-0.6481,10.339,-14.0895,-9.2115,-0.8856
8.98,-0.1569,-0.7164,10.3929,-9.5002,-4.6271,2.1654
9.0,-0.1596,-0.8082,10.3205,-11.9938,-8.9333,1.8593
9.02,-0.1564,-0.6261,10.2765,-12.2045,-12.2979,-2.1475
9.04,-0.0578,-0.6021,10.2539,-11.4086,-12.0865,1.6358
9.06,-0.0632,-0.6217,10.2975,-8.3977,-9.2658,8.1625
9.08,-0.1671,-0.6666,10.199,-7.9578,-9.434,4.3772
9.1,-0.1335,-0.648,10.1764,-5.82,-4.9523,4.0607
9.12,-0.1696,-0.6238,10.0156,-6.1379,-9.3304,1.5849
9.14,-0.0256,-0.5643,9.8992,-1.6254,-9.7442,3.8225
9.16,-0.0015,-0.5825,9.8657,0.5116,-8.1063,6.7265
9.18,0.0612,-0.5784,9.9587,3.9834,-6.9917,3.8273
9.2,0.0777,-0.4757,10.0147,5.4076,-5.7531,2.0554
9.22,0.0562,-0.5046,10.0696,4.9954,-6.883,5.9941
9.24,0.084,-0.6029,10.1552,8.5386,-8.7014,2.7877
9.26,0.1168,-0.521,10.2201,5.8275,-3.9031,5.949
9.28,0.0898,-0.4346,10.2378,10.0631,-8.553,6.1241
9.3,0.1172,-0.4772,10.351,12.2458,-4.7897,3.5548
9.32,0.1395,-0.4404,10.3299,11.8369,-9.0836,3.1207
9.34,-0.01,-0.6913,10.3686,7.1532,-6.1802,-0.6941
9.36,0.2482,-0.3657,10.3306,10.3802,-8.4528,1.1319
9.38,0.1418,-0.4947,10.3479,10.8119,-6.5859,-1.4614
9.4,0.1283,-0.4642,10.4027,13.1108,-7.0614,-0.6536
9.42,0.2347,-0.5303,10.3434,10.3278,-10.0746,0.874
9.44,0.1852,-0.3796,10.2354,11.6662,-5.1874,-1.1703
9.46,0.2831,-0.3142,10.3932,7.2292,-9.9748,-5.2656
9.48,0.1052,-0.4606,10.2426,8.7656,-10.8481,0.1756
9.5,0.1073,-0.4776,10.2078,7.558,-10.1138,-4.9647
9.52,0.1356,-0.354,10.119,8.5379,-9.2482,-3.9445
9.54,-0.0009,-0.4806,9.9261,0.88,-1.0655,-2.0488
9.56,0.009,-0.4556,9.8807,-0.4815,-8.8542,-6.9622
9.58,-0.146,-0.4591,9.9753,3.3563,-11.5385,-3.3865
9.6,0.0215,-0.6127,9.8774,-1.0195,-7.7483,-2.5936
9.62,-0.0874,-0.6105,9.9735,-5.0787,-8.0302,-5.1388
9.64,-0.1356,-0.6764,10.1237,-3.9707,-5.4643,-3.4444
9.66,-0.0534,-0.7029,10.2225,-7.6267,-6.7774,-5.083
9.68,-0.011,-0.7032,10.1409,-13.9992,-5.9843,-1.2366
9.7,-0.2161,-0.6853,10.2435,-9.1288,-8.723,-2.173
9.72,-0.0908,-0.7845,10.2359,-10.5296,-8.3598,-2.6923
9.74,-0.1514,-0.816,10.3564,-9.4322,-10.3389,-1.9777
9.76,-0.2038,-0.7063,10.3981,-11.4742,-9.6834,-2.5712
9.78,-0.1697,-0.6203,10.4761,-9.822,-6.1926,-0.5577
9.8,-0.2025,-0.7673,10.3735,-15.6865,-7.3786,-0.4494
9.82,-0.145,-0.6398,10.2956,-11.9073,-7.9384,2.0388
