time_s,Ax,Ay,Az,Gx,Gy,Gz
0.0,-0.0351,0.3447,9.8573,2.3587,5.6348,-0.2796
0.02,0.2674,0.2305,9.8938,2.4762,3.7196,1.9968
0.04,0.2716,0.2013,9.9417,2.8051,4.9982,0.6505
0.06,-0.0414,0.1829,10.0368,5.3224,5.3474,2.3597
0.08,0.305,0.3363,10.1516,2.8308,2.9086,2.421
0.1,0.225,0.3089,10.1375,5.7535,1.6569,2.956
0.12,0.3083,0.2344,10.1007,4.9269,1.2783,3.6656
0.14,0.4655,0.1595,10.1771,7.1652,1.5516,4.768
0.16,0.3608,0.1383,10.2378,8.4538,-1.2843,1.7166
0.18,0.4301,0.0742,10.2006,9.0898,0.3169,2.7463
0.2,0.2558,-0.0383,10.165,6.0393,-3.3097,2.3739
0.22,0.2965,0.1058,10.0632,7.5723,-5.2161,1.7683
0.24,0.2723,0.0689,10.0769,4.9109,-4.5968,1.8815
0.26,0.1829,0.0656,10.0039,5.6552,-4.6154,1.1887
0.28,0.2464,0.0395,9.9926,7.0371,-4.537,0.5425
0.3,0.0506,-0.0727,9.9126,4.7957,-5.9686,-0.8889
0.32,-0.0938,0.0105,9.8229,6.5304,-4.4735,-3.563
0.34,-0.1037,0.1015,10.009,1.9016,-6.2918,-2.8495
0.36,-0.0374,0.0472,10.056,1.4722,-3.6899,-1.9893
0.38,-0.2267,-0.1551,10.0508,2.2653,-3.9028,-3.1289
0.4,-0.3735,-0.0591,10.1752,-1.0536,-1.4905,-2.2689
0.42,-0.403,-0.0308,10.215,-1.4357,-3.3829,-0.9172
0.44,-0.5303,-0.098,10.2566,0.7156,-1.608,-1.9732
0.46,-0.2721,-0.0891,10.2685,-5.5011,-2.0439,-0.912
0.48,-0.3932,-0.1891,10.203,-4.938,2.6732,-0.2054
0.5,-0.3567,-0.2995,10.1811,-11.6564,6.0031,-2.4119
0.52,-0.2169,-0.1174,10.2216,-7.3759,3.8778,0.6891
0.54,-0.4199,-0.2503,10.0177,-7.9912,0.9399,0.8071
0.56,-0.266,-0.2412,10.022,-7.7333,3.9275,1.6076
0.58,-0.2792,-0.3223,9.8879,-10.7411,8.1559,2.4485
0.6,-0.2177,-0.3865,9.8182,-6.0763,6.7144,3.4017
0.62,-0.1168,-0.1972,9.7855,-8.2629,3.8963,0.9078
0.64,0.1325,-0.2481,9.8992,-7.1254,5.4314,3.0708
0.66,0.2164,-0.2673,10.0525,-6.7498,5.3984,0.5307
0.68,0.3242,-0.2156,10.1029,-5.6876,1.7868,2.6694
0.7,0.2912,-0.2892,10.098,-6.6385,1.2212,1.0223
0.72,0.3815,-0.1882,10.1012,-3.1876,2.6743,2.3724
0.74,0.3185,-0.1265,10.1374,-1.7612,-0.4174,0.5887
0.76,0.3567,-0.1423,10.1084,0.3504,0.4374,1.3795
0.78,0.1874,-0.1374,10.236,0.7253,-0.7438,-2.2737
0.8,0.3599,-0.1078,10.2513,1.9901,-1.1648,-1.5044
0.82,0.2184,-0.1469,10.1643,-0.3357,-5.0984,-1.9288
0.84,0.2637,-0.0691,10.1177,3.5539,-4.5646,-1.6216
0.86,0.1051,-0.0722,10.0526,7.4146,-5.4871,-3.4749
0.88,0.18,0.02,10.007,9.3311,-6.1504,-3.0557
0.9,0.0142,-0.1009,9.8479,4.8628,-4.3401,-2.9349
0.92,-0.0205,-0.1238,9.8326,10.0802,-4.0574,-2.7593
0.94,0.0167,0.0097,9.9607,6.2195,-5.4762,-0.8654
0.96,-0.1351,0.0898,9.8931,9.2501,-4.1389,-2.864
0.98,-0.3224,0.037,10.0751,4.6367,-3.0187,-1.183
1.0,-0.2497,0.0701,10.1377,7.9608,-2.7448,0.6368
1.02,-0.3771,0.0229,10.2339,7.695,-1.927,-1.1333
1.04,-0.2449,-0.0042,10.1917,5.2469,-2.9617,1.6412
1.06,-0.4466,0.2504,10.2441,4.9893,-2.7352,0.3339
1.08,-0.3328,0.1995,10.2399,3.9874,0.8005,0.6143
1.1,-0.2788,0.3409,10.2275,4.9731,-0.5395,1.8244
1.12,-0.2065,0.2657,10.1789,3.111,4.8916,4.4756
1.14,-0.1912,0.2158,10.0995,-1.1943,1.8452,2.6798
1.16,-0.2803,0.1448,10.0582,-4.2521,2.7178,3.9849
1.18,-0.1602,0.2035,10.0119,1.4631,4.3237,3.4765
1.2,-0.1392,0.1964,9.9027,-1.1908,3.3178,2.4903
1.22,-0.039,0.2238,9.8281,-3.4667,3.2493,1.1547
1.24,0.0162,0.2823,9.8831,-4.8835,2.5513,2.0201
1.26,0.2482,0.3713,9.9544,-6.3743,4.7604,-0.6396
1.28,0.1301,0.2657,10.0937,-7.984,4.9421,1.3883
1.3,0.3065,0.2126,10.1671,-5.3693,3.3319,-0.6902
1.32,0.339,0.1634,10.1742,-6.1642,-0.6748,-2.2693
1.34,0.3124,0.1787,10.1598,-7.4478,0.3742,-3.5609
1.36,0.0872,0.2075,10.2486,-7.9404,2.272,-2.141
1.38,0.3842,0.1077,10.3301,-8.1583,0.2569,-2.5332
1.4,0.328,0.1283,10.1655,-4.9476,-2.8802,-2.8849
1.42,0.3865,0.1563,10.2101,-7.753,-3.7321,-4.6193
1.44,0.1293,0.1417,10.1608,-6.6152,-4.4379,-4.1482
1.46,0.2072,0.074,10.064,-8.1848,-5.6241,-3.2995
1.48,0.1227,0.1048,9.991,-1.6046,-2.7051,-2.2377
1.5,0.1499,0.0874,9.9119,-0.0855,-3.8438,-3.328
1.52,0.0612,-0.0627,9.8715,-0.8424,-3.7875,-0.6058
1.54,0.01,0.0138,9.8327,1.9774,-3.1313,-1.1316
1.56,-0.0805,-0.1058,9.8913,4.9805,-5.439,1.6703
1.58,-0.3349,-0.1234,10.0906,7.6376,-6.1711,2.2873
1.6,-0.2899,-0.0424,10.0598,5.2034,-6.8192,0.6772
1.62,-0.3355,-0.0984,10.179,5.5312,-3.5543,5.2908
1.64,-0.3044,-0.0754,10.18,1.1944,-3.515,2.3784
1.66,-0.2016,-0.1669,10.1931,7.1086,-4.0225,2.2582
1.68,-0.3578,-0.3148,10.2627,7.37,-1.0048,2.6617
1.7,-0.3374,-0.2827,10.1953,6.3385,-0.4009,2.0351
1.72,-0.4532,-0.1996,10.0881,9.4875,1.8742,0.1962
1.74,-0.0864,-0.3433,10.1342,8.3435,2.9627,-0.0817
1.76,-0.3638,-0.0791,10.0494,4.2278,3.898,-0.2038
1.78,-0.2143,-0.3431,9.9624,7.4722,2.5002,-0.3664
1.8,-0.1668,-0.2646,9.9716,4.4249,3.2052,-0.351
1.82,-0.0963,-0.2395,9.8581,5.0758,5.3763,0.6139
1.84,0.0679,-0.2214,9.8518,4.5327,7.5403,-2.4883
1.86,0.1396,-0.2873,9.992,4.7804,7.0236,-0.7698
1.88,0.2004,-0.285,10.0054,1.911,6.0926,-2.575
1.9,0.2697,-0.2711,10.0775,1.6232,3.7147,-2.6648
1.92,0.1856,-0.1789,10.1894,-1.6593,5.2968,-2.799
1.94,0.3521,-0.2009,10.1706,-1.2938,0.732,-2.0244
1.96,0.3813,-0.1363,10.144,-1.5576,0.6802,-1.6539
1.98,0.2386,-0.107,10.2108,-4.2743,1.4582,-2.9236
2.0,0.4259,-0.191,10.1594,-3.4321,-1.8316,-3.8029
2.02,0.3933,-0.241,10.1906,-6.3473,1.1916,-0.1134
2.04,0.2814,-0.0568,10.146,-8.6909,-2.5721,-0.1971
2.06,0.3204,-0.0688,10.0788,-3.2796,-6.6006,0.733
2.08,0.037,-0.0799,10.0676,-7.3449,-4.1615,-0.1681
2.1,0.1095,-0.0825,9.9231,-7.6359,-4.596,-0.0764
2.12,0.0287,-0.0625,9.8298,-6.7985,0.0528,3.3424
2.14,-0.0539,0.0536,9.8223,-6.7043,-4.3685,3.6709
2.16,-0.0952,0.0555,9.8266,-6.4707,-6.4168,2.8638
2.18,-0.2554,0.0692,9.9944,-7.2616,-1.6937,2.6436
2.2,-0.2334,0.003,9.9708,-6.489,-6.6247,2.3877
2.22,-0.4443,0.0583,10.1314,-6.4259,-5.3533,2.3451
2.24,-0.4753,0.131,10.09,0.5746,-4.5734,0.893
2.26,-0.4428,0.1649,10.1535,-2.431,-2.8981,0.3509
2.28,-0.3706,0.0874,10.2316,-3.1607,-0.3372,-0.1781
2.3,-0.2978,0.2151,10.2787,1.365,1.6307,-2.1607
2.32,-0.1777,0.1957,10.2209,-0.9447,0.7736,-1.6312
2.34,-0.4013,0.2554,10.1577,3.4335,3.7152,-0.8701
2.36,-0.2558,0.289,10.1297,4.7969,4.7719,-3.9839
2.38,-0.2214,0.3277,10.1251,7.9283,3.9918,-1.8005
2.4,-0.1688,0.2212,10.0617,6.3895,5.1637,-3.665
2.42,-0.1614,0.2236,9.8284,8.1271,3.8843,-2.6319
2.44,-0.0496,0.2432,9.8204,9.2255,4.3278,-4.7867
2.46,0.2249,0.1801,9.9155,6.004,4.0197,-4.1919
2.48,0.1862,0.2367,9.959,11.5131,5.0943,-2.0262
2.5,0.145,0.1244,10.0143,7.4842,5.235,-1.7532
2.52,0.275,0.2219,10.0672,5.6322,5.6016,-0.6418
2.54,0.2532,0.3229,10.1156,8.3582,3.0005,0.9956
2.56,0.3516,0.1925,10.2171,5.1958,3.1599,0.3658
2.58,0.3514,0.2423,10.2997,5.499,0.6433,0.3258
2.6,0.3108,0.1564,10.2061,5.4901,-4.0398,1.5558
2.62,0.3015,0.0796,10.3133,1.3658,1.1193,1.3933
2.64,0.1676,0.1958,10.1492,6.2257,-0.3336,2.837
2.66,0.2349,-0.0145,10.1915,3.7631,-3.8627,2.7917
2.68,0.1653,0.084,10.0835,-1.646,-3.2541,5.0006
2.7,0.2778,0.0343,9.9811,-3.0622,-5.8823,1.8364
2.72,0.2787,0.1137,9.9156,1.218,-2.9725,2.7715
2.74,0.1899,-0.0292,9.8527,-4.7922,-4.9628,1.9611
2.76,-0.0993,-0.0044,9.8191,-8.7653,-5.4895,1.2933
2.78,-0.084,-0.0408,9.9177,-6.945,-4.6871,-1.1729
2.8,-0.2223,-0.1542,10.0422,-4.9522,-4.0429,-0.1778
2.82,-0.3056,-0.0074,10.053,-3.4604,-4.3477,-2.0966
2.84,-0.3544,-0.1912,10.0651,-9.2706,-0.8869,-1.8622
2.86,-0.1841,-0.1276,10.109,-10.1659,-1.9952,-2.2475
2.88,-0.3535,-0.123,10.2799,-5.7522,0.0354,-2.8536
2.9,-0.3065,-0.1595,10.1515,-9.2915,-2.1974,-3.5409
2.92,-0.2793,-0.2203,10.2037,-4.2097,-0.8798,-2.5276
2.94,-0.4394,-0.1087,10.1009,-8.6361,1.7406,-2.4528
2.96,-0.4148,-0.1251,10.1354,-6.6391,4.0331,-1.8416
2.98,-0.3635,-0.1728,10.078,-6.3504,3.3351,-2.499
3.0,-0.0828,-0.2198,10.039,-1.6942,5.3983,-2.1917
3.02,-0.0785,-0.2248,9.9501,-1.3332,5.5116,-0.8366
3.04,-0.0847,-0.2317,9.8477,-4.0492,4.7955,-0.3433
3.06,-0.168,-0.1805,9.8496,1.1668,3.8992,-0.8315
3.08,-0.0186,-0.227,9.95,2.839,6.6221,2.8628
3.1,0.1584,-0.2508,9.9712,1.4757,5.0171,0.7391
3.12,0.0184,-0.1589,9.9439,5.1741,3.3348,2.5495
3.14,0.2485,-0.2351,10.1256,4.1181,2.7896,2.3683
3.16,0.2384,-0.2525,10.2097,4.5409,3.083,3.4406
3.18,0.1451,-0.1622,10.1959,6.6239,1.894,3.783
3.2,0.3524,-0.203,10.2174,6.9073,-0.7205,3.1991
3.22,0.5061,-0.1572,10.1623,7.0839,-1.2746,3.1571
3.24,0.1984,-0.0823,10.1888,9.3025,2.0929,1.4032
3.26,0.4052,-0.2413,10.122,9.9096,-2.0148,0.7438
3.28,0.1686,-0.1043,10.127,12.8944,-4.9582,1.2236
3.3,0.2476,-0.1159,10.065,8.8859,-5.4334,-0.3036
3.32,0.061,-0.0599,9.9818,5.5662,-1.8836,0.3456
3.34,0.0375,0.0229,9.9147,6.5871,-6.2731,-0.281
3.36,0.2054,-0.0051,9.829,6.0645,-0.8706,-0.1611
3.38,-0.0058,-0.0738,9.9373,3.4938,-3.0561,-3.0279
3.4,-0.0173,0.0163,9.9846,-1.7627,-3.4784,-1.7866
3.42,-0.0308,0.0509,10.0463,-2.3952,-4.0414,-3.5424
3.44,-0.2682,0.0549,10.1246,0.6581,-0.768,-3.1445
3.46,-0.1603,0.0538,10.0812,-3.7279,-2.3012,-2.617
3.48,-0.4153,0.0737,10.2067,-3.7274,0.7409,-1.3245
3.5,-0.37,0.2189,10.1918,-2.0004,-1.312,-1.1753
3.52,-0.2633,0.2317,10.1868,-4.7394,1.2715,-1.8845
3.54,-0.4253,0.0938,10.1452,-3.8422,1.8757,-1.2383
3.56,-0.2683,0.1972,10.1725,-8.476,0.7946,-0.7093
3.58,-0.2412,0.2565,10.1554,-6.808,2.9044,-0.1125
3.6,-0.0626,0.3212,10.0538,-6.0802,5.3843,0.5521
3.62,-0.0852,0.2039,9.9829,-8.6856,4.9781,2.7676
3.64,-0.153,0.2529,9.9538,-7.8454,4.6417,4.9881
3.66,-0.0754,0.2846,9.8433,-8.9388,6.6202,3.1194
3.68,-0.0777,0.1783,9.8986,-6.5593,3.5444,3.1019
3.7,0.264,0.2261,9.9032,-5.5923,7.4144,3.6235
3.72,0.1616,0.241,10.0022,-9.7644,4.5681,1.8196
3.74,0.268,0.2734,10.0916,-2.4234,3.0023,1.8349
3.76,0.3538,0.2056,10.193,-2.4169,2.994,0.4931
3.78,0.2001,0.1418,10.154,-3.1321,3.4289,1.78
3.8,0.3805,0.1929,10.2298,-0.7142,3.3454,-0.8429
3.82,0.3968,0.0569,10.2588,1.5788,-2.9659,1.6471
3.84,0.445,0.1649,10.2728,2.2377,0.1308,-1.4757
3.86,0.3518,0.1505,10.1963,3.2804,-4.3226,-2.2859
3.88,0.2262,0.1268,10.0729,0.8455,-2.8384,-1.5625
3.9,0.2068,0.1133,10.0828,3.5968,-3.0459,-3.4758
3.92,0.2587,0.1192,9.9898,6.7125,-4.2598,-3.1094
3.94,0.1982,0.0572,9.8664,2.2818,-5.2403,-3.445
3.96,0.0639,0.1213,9.9519,7.4536,-5.9183,-2.4056
3.98,-0.1258,-0.024,9.8842,7.0943,-6.9138,-3.4834
4.0,-0.0659,-0.0458,9.8323,9.4479,-6.7038,-2.8148
4.02,-0.0505,-0.013,9.9273,6.6654,-6.3985,-2.3336
4.04,-0.1845,-0.0962,10.0707,8.1855,-3.8608,-1.4003
4.06,-0.3077,-0.196,10.1493,12.5518,-2.7086,-1.1469
4.08,-0.2398,-0.1339,10.1194,7.0898,-3.4485,-0.2876
4.1,-0.339,-0.137,10.2367,5.1988,-0.8854,0.4167
4.12,-0.5086,-0.1327,10.2811,5.1266,-1.1866,4.1131
4.14,-0.2983,-0.3104,10.1824,4.2014,0.0136,2.4427
4.16,-0.4695,-0.2866,10.239,-0.879,-0.957,2.5702
4.18,-0.2735,-0.3435,10.1071,6.1414,6.8995,4.267
4.2,-0.3498,-0.1388,10.1609,-0.8283,4.4075,2.46
4.22,-0.3103,-0.1604,10.0022,0.0835,3.1386,3.7791
4.24,-0.1743,-0.2828,9.9087,-3.4155,4.6577,2.5232
4.26,-0.0128,-0.2385,9.8572,-4.7654,5.7013,1.0535
4.28,0.1523,-0.2597,9.9112,-4.5936,7.7468,0.8878
4.3,0.0755,-0.2127,9.9866,-6.5486,6.3082,3.8451
4.32,0.1944,-0.2631,9.9805,-6.6742,3.914,2.9873
4.34,0.0559,-0.2107,10.0557,-8.4956,4.8126,-2.2961
4.36,0.2875,-0.2274,10.0804,-9.6595,2.813,0.254
4.38,0.4275,-0.1879,10.1155,-6.2815,2.0206,-2.6713
4.4,0.2862,-0.1932,10.2051,-9.5666,0.293,-1.6311
4.42,0.2899,-0.1614,10.2298,-8.3935,1.5736,-2.1542
4.44,0.147,-0.2682,10.1766,-7.2738,-0.6682,-3.129
4.46,0.4204,-0.1165,10.164,-6.5572,-1.127,-1.6492
4.48,0.4799,-0.1665,10.1364,-8.2462,-4.075,-3.3394
4.5,0.3513,-0.1051,10.0962,-4.211,-7.8856,-2.897
4.52,0.234,-0.0828,10.0411,-1.538,-6.0174,-1.4571
4.54,0.1691,-0.0118,10.0707,-5.6972,-2.4031,-1.4801
4.56,0.103,0.0232,9.8732,-3.3546,-6.8918,-0.859
4.58,0.0531,0.0598,9.8547,-1.8637,-1.3089,-0.1566
4.6,-0.0329,-0.1368,9.8374,0.6444,-5.4732,1.4787
4.62,-0.1761,-0.0045,10.0475,0.0153,-3.4349,0.2066
4.64,-0.2098,0.0007,9.896,4.2289,-2.6279,1.3855
4.66,-0.1936,0.0918,10.0236,7.4687,-3.2815,1.6098
4.68,-0.2088,-0.031,10.178,8.3251,-1.4984,2.3729
4.7,-0.3746,0.2359,10.1906,7.051,-3.2144,3.431
4.72,-0.3123,0.1964,10.1882,4.3738,-1.2418,3.5015
4.74,-0.3724,0.1724,10.2291,7.9333,-1.349,2.8208
4.76,-0.314,0.1402,10.2735,5.334,-0.4345,1.3314
4.78,-0.2577,0.2549,10.0992,4.9231,1.0778,1.1833
4.8,-0.2861,0.1459,10.0985,9.6649,1.8341,0.5813
4.82,-0.1609,0.2056,9.9921,6.1723,4.4928,-0.9148
4.84,-0.1559,0.2376,9.9235,7.9749,5.1819,-0.5537
4.86,-0.0505,0.2948,9.9201,6.785,5.6521,-0.121
4.88,-0.1177,0.2245,9.7586,3.2504,5.9466,-1.8506
4.9,0.0616,0.2441,9.8625,3.3762,2.2093,-3.4344
4.92,0.1689,0.2652,9.9728,1.5477,5.1562,-3.5738
4.94,0.1699,0.1926,10.0488,-0.7611,1.6545,-2.4567
4.96,0.3056,0.3237,10.0818,-0.1501,3.1361,-2.4284
4.98,0.2346,0.2098,10.1632,-2.3753,3.0685,-4.4403
5.0,0.3484,0.1944,10.168,-5.2671,1.7853,-3.8608
5.02,0.335,0.1291,10.2139,-5.8121,-0.4127,-1.5502
5.04,0.4073,0.1296,10.2109,-2.0478,0.0699,-2.3532
5.06,0.3586,0.1912,10.1112,-4.7342,0.4471,-0.518
5.08,0.2587,0.1119,10.2182,-3.4573,-5.1977,0.4943
5.1,0.343,0.1174,10.1129,-8.426,-1.156,1.0063
5.12,0.369,0.0389,10.0785,-8.4607,-2.3887,0.3121
5.14,0.2217,0.0624,10.0757,-6.882,-3.5369,1.5403
5.16,0.0551,-0.0617,9.959,-7.6981,-7.4066,2.8666
5.18,0.026,0.0493,9.8334,-7.7907,-5.1472,2.0933
5.2,-0.0209,-0.0279,9.7798,-5.3683,-4.6485,4.0597
5.22,-0.1556,-0.0433,9.8642,-8.5962,-3.2,2.7602
5.24,-0.2199,-0.1238,9.9819,-4.3736,-4.4327,1.7779
5.26,-0.3362,-0.0486,9.9985,-5.5549,-5.5299,2.3166
5.28,-0.1811,-0.0399,10.0715,-5.1739,-1.8966,3.7224
5.3,-0.2374,0.0259,10.1749,-3.6673,-4.2719,1.931
5.32,-0.2707,-0.1975,10.2645,-0.7859,-0.8522,1.5789
5.34,-0.4093,-0.1794,10.2656,-1.5583,-1.0623,-0.7152
5.36,-0.4343,-0.1753,10.1519,-0.2707,-0.3146,-0.0102
5.38,-0.4303,-0.1971,10.1902,-0.4624,1.3672,0.1795
5.4,-0.4071,-0.1886,10.0707,2.6051,5.8118,-0.8325
5.42,-0.1789,-0.1936,10.0903,3.2165,2.0007,-0.6619
5.44,-0.1616,-0.3461,10.1023,6.9072,6.9161,-2.7114
5.46,-0.028,-0.2481,9.9708,5.2767,4.9062,-3.3611
5.48,-0.0923,-0.2219,9.8429,8.8577,5.8755,-3.4865
5.5,0.0382,-0.2317,9.7388,6.716,4.4571,-3.0141
5.52,0.0753,-0.3195,9.9421,6.2403,6.3308,-3.9124
5.54,0.029,-0.3226,9.9876,8.5957,5.7485,-2.5406
5.56,0.1561,-0.2947,10.0849,3.1012,4.0331,-2.3287
5.58,0.2802,-0.2351,10.0902,5.5422,3.7883,-1.1028
5.6,0.3349,-0.2297,10.1565,9.4388,-0.2165,-1.6862
5.62,0.3006,-0.2831,10.2439,5.7684,0.2598,1.4226
5.64,0.2378,-0.1947,10.224,1.9434,1.268,2.4362
5.66,0.3073,-0.0911,10.1968,3.0599,-0.5001,-0.2671
5.68,0.4279,-0.0816,10.135,5.8515,-1.2592,3.5696
5.7,0.4237,-0.1214,10.2343,0.7239,-0.8736,2.2826
5.72,0.2927,-0.0548,10.103,1.0428,-2.0081,5.0536
5.74,0.2925,-0.0804,10.0568,0.1097,-4.6437,3.4891
5.76,0.1841,-0.0625,9.9902,-6.115,-6.9175,3.2731
5.78,0.1112,-0.0608,9.8691,-2.7983,-4.387,3.2625
5.8,0.0674,-0.0878,9.7234,-3.9877,-6.7839,1.8484
5.82,-0.1801,-0.0272,9.8664,-7.056,-4.7153,2.0405
5.84,-0.1033,0.0136,9.9296,-7.7031,-5.3131,0.1832
5.86,-0.0996,0.0233,10.0867,-9.7011,-3.8656,1.6171
5.88,-0.2065,0.0734,10.2687,-8.7303,-1.0909,-1.7112
5.9,-0.2743,0.0999,10.1444,-6.413,-2.3574,-2.1345
5.92,-0.2289,0.1769,10.1133,-7.1408,-3.6874,-3.6007
5.94,-0.3925,0.2171,10.3285,-8.724,-1.7452,-3.4529
5.96,-0.3876,0.2034,10.2359,-8.061,0.825,-1.8285
5.98,-0.4133,0.2324,10.1643,-7.4716,1.5391,-1.1763
6.0,-0.4025,0.2396,10.1963,-5.3155,0.5047,-2.869
6.02,-0.4342,0.1743,10.1505,-6.6542,3.7869,-1.2335
6.04,-0.2425,0.1289,10.0738,-1.5046,2.4701,-3.6482
6.06,-0.2614,0.2236,9.9814,-4.709,2.1813,-2.2462
6.08,-0.0471,0.2818,9.9283,0.3086,2.4451,-0.9177
6.1,0.0867,0.2663,9.8776,-4.8318,6.8252,-1.4699
6.12,-0.1444,0.3079,9.8589,1.3712,4.1587,-0.4441
6.14,0.1585,0.2649,9.9865,5.2067,6.2163,-0.2564
6.16,0.1348,0.2656,10.0269,0.1892,6.2044,3.285
6.18,0.2039,0.166,9.9853,7.9615,4.1966,2.4999
6.2,0.3168,0.2634,10.1463,6.3871,3.3234,2.7954
6.22,0.2357,0.1139,10.1685,10.1566,3.9925,3.2776
6.24,0.3443,0.2406,10.2652,9.1401,0.6049,2.2065
6.26,0.4836,0.1546,10.2083,7.3442,-1.3977,3.8699
6.28,0.3428,0.2441,10.1657,8.7819,0.4089,2.0801
6.3,0.3048,0.089,10.1638,8.1495,-2.2172,0.7509
6.32,0.343,0.182,10.0604,12.4983,-5.5004,0.6875
6.34,0.1233,0.0795,10.0894,11.1246,-4.1069,-0.1358
6.36,0.2799,0.0705,10.0821,8.9974,-5.3439,0.0683
6.38,0.2339,0.05,9.9619,6.0818,-5.7215,-1.6025
6.4,0.1,-0.0038,9.8226,0.9544,-3.0057,-0.9781
6.42,-0.0433,-0.04,9.7715,6.4806,-4.8627,-1.847
6.44,0.0918,0.059,9.845,1.7491,-4.1316,-1.2372
6.46,-0.1223,-0.0222,9.94,4.2247,-6.0935,-1.4585
6.48,-0.0755,-0.0622,10.0729,-3.7445,-3.0654,-2.6432
6.5,-0.1627,-0.1163,10.1103,2.0164,-1.705,-1.7606
6.52,-0.3565,-0.0408,10.3062,-1.7794,-3.9209,-3.2399
6.54,-0.4268,-0.2106,10.187,-4.1313,-1.1997,-0.7378
6.56,-0.5058,-0.2296,10.1858,-5.9504,-0.3831,-2.02
6.58,-0.3633,-0.1264,10.1611,-5.3945,1.288,-0.7911
6.6,-0.3067,-0.2855,10.2405,-5.4255,3.3828,1.164
6.62,-0.2558,-0.328,10.1563,-8.6298,3.146,0.0949
6.64,-0.2076,-0.196,10.0493,-8.5106,3.648,0.4602
6.66,-0.1741,-0.285,10.0955,-8.4351,0.7313,2.1133
6.68,-0.1118,-0.2247,9.9789,-7.9835,7.1553,3.5276
6.7,-0.0069,-0.2763,9.9243,-14.2484,4.16,2.7438
6.72,-0.1178,-0.3069,9.8045,-5.4576,3.0114,2.8746
6.74,0.0767,-0.2794,9.8602,-4.8158,5.6725,2.6466
6.76,0.1229,-0.2892,9.9984,-4.5917,5.1367,1.0579
6.78,0.0935,-0.1882,10.0084,-6.2197,2.5938,2.9237
6.8,0.0867,-0.1086,10.1021,-2.7286,2.8449,2.7577
6.82,0.2815,-0.2478,10.2083,-0.6435,6.4569,1.0002
6.84,0.412,-0.1148,10.2476,-0.688,0.9396,1.2026
6.86,0.3533,-0.2743,10.2316,2.0622,0.7821,-0.5339
6.88,0.2202,-0.1445,10.2283,0.9998,-0.5124,0.6325
6.9,0.2888,-0.1612,10.3142,-0.1108,-0.2305,-1.8835
6.92,0.3194,-0.077,10.1545,-0.8116,-0.5532,-0.9441
6.94,0.2917,-0.1773,10.1645,4.1108,-1.2828,-3.2741
6.96,0.1641,-0.0309,10.0409,4.6223,-4.1876,-1.5706
6.98,0.192,0.0715,10.0112,6.7393,-5.2378,-3.3911
7.0,0.2604,-0.0116,10.0172,8.5548,-5.3935,-3.6128
7.02,-0.0205,-0.0289,9.8319,6.7699,-3.2763,-3.8414
7.04,0.0579,-0.0352,9.8301,4.9125,-2.917,-2.3257
7.06,-0.0574,0.0973,9.8906,7.9209,-5.6345,-2.1457
7.08,-0.242,-0.0042,10.0636,9.0317,-5.2467,-0.0927
7.1,-0.2311,0.1051,10.1596,6.9848,-0.8901,-1.269
7.12,-0.3226,0.1339,10.0324,8.9157,-6.1473,-1.6891
7.14,-0.2088,0.1202,10.0602,6.2117,-3.5114,0.2274
7.16,-0.3716,0.0987,10.2354,7.1684,-1.0789,1.9744
7.18,-0.4477,0.2208,10.227,0.742,-1.1578,1.6075
7.2,-0.2604,0.2193,10.2379,2.0672,0.3877,3.5506
7.22,-0.1207,0.1421,10.1983,5.4698,1.8117,3.941
7.24,-0.4146,0.2373,10.1837,-2.26,0.763,3.145
7.26,-0.351,0.2025,10.1331,0.4276,2.7875,2.1944
7.28,-0.0381,0.2788,9.9848,-3.5198,2.5137,4.3947
7.3,-0.1997,0.2522,9.9735,-3.6346,3.9699,2.9921
7.32,-0.0168,0.321,9.957,-2.0762,8.6276,2.8795
7.34,0.1247,0.2483,9.779,-1.913,6.0997,1.2817
7.36,0.152,0.2122,9.9064,-6.5284,3.8841,2.3398
7.38,0.2513,0.1852,10.0362,-6.4667,3.6956,1.2182
7.4,0.132,0.2138,10.0488,-5.3805,5.1079,0.5679
7.42,0.3181,0.2587,10.0823,-6.853,5.0599,-1.9849
7.44,0.3986,0.2047,10.2123,-8.6124,2.0024,-2.3031
7.46,0.5688,0.1016,10.2104,-6.5433,0.4629,-3.2108
7.48,0.3406,0.0822,10.2085,-8.6091,1.869,-3.8082
7.5,0.3347,0.2308,10.1395,-7.8196,-2.3064,-1.5969
7.52,0.3399,0.2032,10.2115,-10.6688,-0.9134,-1.3811
7.54,0.395,0.1163,10.2295,-7.9142,-1.574,-3.8883
7.56,0.3258,0.1501,10.0081,-0.9959,-1.8836,-1.7148
7.58,0.1278,0.0456,10.0386,0.3853,-3.9219,-2.2075
7.6,0.1037,-0.0432,9.9957,-4.7759,-3.8488,-0.4022
7.62,-0.0507,-0.0329,9.874,-2.2845,-3.4984,-1.5345
7.64,0.004,0.0116,9.8271,-3.0829,-4.3885,-0.083
7.66,-0.0257,-0.0393,9.921,3.8218,-4.0662,0.354
7.68,-0.1273,-0.2601,9.9125,1.2225,-5.3887,-0.8249
7.7,-0.0479,-0.0281,9.992,6.4735,-3.5321,1.555
7.72,-0.3465,-0.0986,10.1508,5.2961,-2.2135,0.4296
7.74,-0.141,-0.1857,10.2049,7.211,-2.2489,1.4402
7.76,-0.3671,-0.1636,10.2327,5.308,-2.7421,3.4643
7.78,-0.4085,-0.1941,10.2344,6.5665,-0.5178,1.5146
7.8,-0.402,-0.1325,10.2038,8.5167,2.1307,3.6962
7.82,-0.3914,-0.2191,10.1699,9.1351,2.7989,1.954
7.84,-0.2754,-0.1039,10.1417,8.2286,1.5347,0.4672
7.86,-0.2321,-0.2286,10.069,7.5306,3.7009,2.0939
7.88,-0.2983,-0.2243,9.9414,7.4069,2.5401,-0.1306
7.9,-0.079,-0.1203,10.1314,8.781,5.2368,0.3718
7.92,0.0043,-0.3043,9.8372,7.2752,5.1324,-0.5493
7.94,0.0234,-0.2097,9.8492,7.6788,6.3244,-0.9524
7.96,0.0892,-0.2714,9.9352,4.7551,5.695,-1.9445
7.98,0.011,-0.3479,9.9192,8.5137,3.1992,-1.2115
8.0,0.2967,-0.1856,9.9855,1.6913,4.961,-2.3487
8.02,0.189,-0.2336,10.053,-1.0427,2.9808,-2.3581
8.04,0.1706,-0.1382,10.1495,-2.4683,2.1839,-4.4196
8.06,0.3465,-0.2793,10.1611,2.4792,0.6109,-3.809
8.08,0.3003,-0.1167,10.2377,0.4626,0.8727,-3.5558
8.1,0.4679,-0.095,10.3517,-2.3956,-0.1632,-1.7124
8.12,0.28,-0.1564,10.1644,-9.1025,-2.1256,-1.4862
8.14,0.2479,-0.1086,10.1925,-5.3922,-3.2234,-0.1716
8.16,0.2316,-0.123,10.099,-9.572,-1.7752,2.128
8.18,0.0898,-0.0195,10.1126,-7.8222,-5.9404,1.1746
8.2,0.074,-0.1551,9.9932,-7.4948,-3.5235,3.5435
8.22,0.2375,-0.0657,9.8967,-6.3541,-6.3976,2.8857
8.24,0.0823,-0.0276,9.9326,-6.7017,-2.532,3.714
8.26,-0.046,0.1167,9.9456,-7.7189,-7.1268,2.1248
8.28,-0.0865,0.0356,9.9246,-4.2821,-3.8835,1.7662
8.3,-0.1187,0.161,10.0796,-4.1545,-5.4234,3.3792
8.32,-0.1309,-0.0389,10.1131,-2.2014,-1.82,-0.1235
8.34,-0.259,0.1323,10.1266,-2.3696,-3.2429,3.4944
8.36,-0.4622,0.1271,10.0732,-2.4029,-1.6987,1.8642
8.38,-0.2729,0.2141,10.2492,-0.6418,-1.3413,-1.3935
8.4,-0.3193,0.1777,10.2305,0.7196,0.4311,0.4869
8.42,-0.2373,0.171,10.2915,1.3795,0.6108,1.0604
8.44,-0.4404,0.334,10.075,7.1468,1.8664,-2.0845
8.46,-0.2352,0.1361,10.1687,3.1373,1.5139,-1.8782
8.48,-0.1656,0.2639,10.1162,2.0886,3.6133,-3.4768
8.5,-0.2008,0.2563,9.9767,5.6992,9.1485,-3.7538
8.52,-0.1251,0.2168,10.028,8.5354,2.8806,-1.8695
8.54,-0.0994,0.2776,9.8888,7.4382,2.9195,-3.4683
8.56,-0.1293,0.1772,9.7502,6.8371,3.7182,-3.507
8.58,0.0704,0.1711,9.925,9.0948,3.788,-2.0178
8.6,0.1972,0.3322,9.9827,7.9079,4.4279,-1.2199
8.62,0.1887,0.3475,10.0674,6.6762,4.2017,-0.3019
8.64,0.3097,0.1555,10.1383,4.4568,3.9536,-0.9156
8.66,0.2609,0.163,10.1228,10.1312,0.5858,-0.6242
8.68,0.3605,0.1963,10.1362,7.1263,0.807,1.5882
8.7,0.2808,0.1456,10.1741,4.4458,-0.2345,1.5664
8.72,0.2339,0.1818,10.1843,0.7847,0.7199,0.163
8.74,0.2872,0.1889,10.2307,4.4403,-2.0919,3.208
8.76,0.2832,0.0612,10.2154,1.7984,-3.3742,2.6176
8.78,0.2381,0.0741,10.1511,1.821,-2.0752,3.8716
8.8,0.1543,0.0123,9.9838,-2.5266,-3.889,3.1118
8.82,0.2364,-0.0009,10.0756,-1.1209,-4.4383,1.5409
8.84,0.1321,-0.1111,9.8395,-2.5431,-3.1457,4.7157
8.86,-0.0338,0.0763,9.7492,-4.8239,-6.0257,0.5737
8.88,-0.2071,-0.0307,9.8392,-5.8379,-7.0186,0.7986
8.9,-0.1573,-0.1214,9.8954,-6.7559,-6.9977,1.9056
8.92,-0.1453,-0.021,9.9137,-7.6301,-3.3196,-1.6265
8.94,-0.1457,-0.1478,10.0827,-6.2312,-4.9347,0.397
8.96,-0.1503,-0.081,10.1103,-6.204,-1.776,-1.3253
8.98,-0.4447,-0.2574,10.114,-11.4701,-0.8288,-1.1534
9.0,-0.275,-0.1359,10.2014,-6.4944,2.4167,-2.3434
9.02,-0.2449,-0.1277,10.2816,-6.5507,0.8788,-1.7523
9.04,-0.3577,-0.1865,10.2293,-8.4416,1.4673,-3.9671
9.06,-0.3809,-0.2836,10.182,-7.9345,1.1358,-3.1722
9.08,-0.2554,-0.2624,10.134,-9.0583,2.984,-2.4487
9.1,-0.3629,-0.1622,10.071,-0.8902,4.7614,-1.4982
9.12,-0.0991,-0.2017,10.0006,-4.1126,6.157,-0.0568
9.14,-0.1245,-0.3243,9.8822,-2.7333,6.1277,-0.671
9.16,-0.0325,-0.1576,9.8795,-1.6366,4.7632,-0.799
9.18,-0.0466,-0.3217,9.7686,-1.0145,3.6851,1.1698
9.2,0.0627,-0.2815,9.9698,3.563,-0.1845,1.0521
9.22,0.2927,-0.3027,9.9265,4.0063,6.3822,0.5676
9.24,0.2494,-0.1474,10.0419,1.901,4.5151,2.1774
9.26,0.3218,-0.2842,10.1957,4.637,5.7004,3.8772
9.28,0.3668,-0.1951,10.2323,9.4753,2.7747,3.0472
9.3,0.3862,-0.2887,10.2202,2.1371,-0.0742,4.5486
9.32,0.4362,-0.2356,10.0913,9.8638,2.8994,2.6179
9.34,0.333,-0.1414,10.2245,5.3946,-0.8781,4.0132
9.36,0.1396,-0.104,10.142,10.4224,1.6253,4.3548
9.38,0.2925,-0.0796,9.992,10.0366,-2.3196,2.134
9.4,0.3934,-0.1622,10.1069,9.0699,-4.5391,0.5918
9.42,0.3582,-0.0079,9.9889,8.1371,-6.6383,2.3021
9.44,0.0965,-0.0117,9.9493,4.9764,-4.0288,0.1963
9.46,0.0646,-0.1144,9.8883,5.2366,-5.578,-2.5827
9.48,-0.0329,0.0449,9.894,4.8099,-3.7531,-0.2472
9.5,-0.3264,0.0661,9.9055,2.7086,-6.7728,-1.8187
9.52,-0.1186,0.068,10.0667,1.4907,-2.6319,-1.3627
9.54,-0.2713,0.0104,9.961,2.1146,-5.5483,-1.4979
9.56,-0.3409,0.1939,10.076,1.407,-4.9453,-4.4212
9.58,-0.4044,0.1349,10.1849,0.7493,-1.8068,-2.2615
9.6,-0.3366,0.1528,10.1802,-0.7902,-1.6794,-2.0761
9.62,-0.3169,0.1671,10.2684,-3.9289,-2.465,-2.1159
9.64,-0.2368,0.2753,10.1432,-4.2993,0.7372,-1.5234
9.66,-0.2694,0.1574,10.127,-6.6385,1.9449,0.2412
9.68,-0.3356,0.2871,10.184,-8.2846,2.8267,0.5506
9.7,-0.1916,0.1871,10.1695,-4.5375,5.3244,1.5365
9.72,-0.1014,0.1825,9.9119,-4.642,7.3247,2.8334
9.74,-0.108,0.2347,9.9599,-4.1445,5.0462,1.7066
9.76,0.0389,0.2829,9.8624,-3.611,4.9552,1.9143
9.78,-0.0218,0.2386,9.7656,-8.8568,4.4629,2.7594
9.8,0.1093,0.2865,9.7926,-9.879,5.6059,4.353
9.82,0.1727,0.1785,10.0163,-4.3116,0.6908,5.7345
9.84,0.0704,0.1844,10.0684,-4.5778,4.2869,2.6543
9.86,0.204,0.2226,10.129,-5.7084,5.2081,2.2521
9.88,0.2394,0.2126,10.185,-0.7662,1.5545,2.2846
9.9,0.4403,0.1712,10.1604,-1.3266,3.6387,1.181
9.92,0.3203,0.2511,10.2704,-0.3893,1.1903,0.5436
9.94,0.3108,0.2016,10.1884,-0.3782,1.0471,-0.0149
9.96,0.3123,0.0452,10.2068,6.6732,-1.0442,-1.0343
9.98,0.277,0.1486,10.1139,4.2758,-3.945,-0.0968
10.0,0.3312,0.0903,10.0972,6.0026,-3.6631,-1.773
10.02,0.1864,0.0929,10.0585,6.9096,-4.6115,-1.6043
10.04,0.2584,-0.0016,10.094,6.4021,-5.2628,-3.1941
10.06,0.1086,0.0406,9.8772,6.8522,-6.5284,-3.4954
10.08,0.1372,-0.0028,9.8828,6.125,-5.0393,-2.5322
10.1,-0.0501,-0.0813,9.8429,8.4441,-2.0749,-2.9198
10.12,-0.0873,-0.0876,9.9218,5.9044,-4.3605,-2.1162
10.14,-0.1563,-0.048,10.0165,5.1925,-2.895,-1.887
10.16,-0.1951,-0.104,10.1059,6.904,-5.1298,0.3624
10.18,-0.2745,-0.1554,10.0655,8.926,-0.4102,-0.2351
10.2,-0.1341,-0.1782,10.1756,5.6233,-0.1462,-1.3238
10.22,-0.4006,-0.1879,10.1894,9.1866,1.2074,2.7206
10.24,-0.3502,-0.2033,10.2148,6.0321,-0.0524,1.7565
10.26,-0.3203,-0.1982,10.2112,4.3436,-0.0794,2.6904
10.28,-0.3337,-0.1344,10.1803,-1.5186,1.4361,1.9233
10.3,-0.3472,-0.2128,10.1731,-1.4849,2.0187,2.1799
10.32,-0.1857,-0.1075,10.093,1.1867,4.5835,3.0676
10.34,-0.0485,-0.3588,9.9501,-1.0056,3.9278,1.7014
10.36,-0.1796,-0.3288,9.9252,-3.9658,3.3955,3.2085
10.38,0.0293,-0.2585,9.8179,-4.2771,4.1467,3.9205
10.4,-0.053,-0.2475,9.8217,-5.3186,4.3159,2.4802
10.42,-0.0334,-0.2599,9.943,-2.715,6.4368,1.0174
10.44,0.2366,-0.3171,10.0834,-4.2369,4.5597,0.3584
10.46,0.2305,-0.2568,10.0842,-4.0982,3.2632,-1.1408
10.48,0.3832,-0.2905,10.0687,-5.5689,4.5371,-2.6188
10.5,0.2736,-0.1878,10.1912,-11.9295,3.4236,-1.1475
10.52,0.4006,-0.1956,10.2193,-9.1834,-1.6303,-3.6932
10.54,0.3773,-0.2403,10.1497,-8.9779,-0.1628,-4.0651
10.56,0.3439,-0.1718,10.2653,-9.305,-1.7964,-1.9058
10.58,0.2832,-0.1463,10.2418,-7.9087,-1.8392,-2.9839
10.6,0.2468,-0.1201,10.2489,-3.4591,-2.7521,-2.0697
10.62,0.3453,-0.1188,10.1081,-4.3075,-3.3183,-2.3345
10.64,0.2961,-0.0992,9.9311,1.7785,-4.6847,-1.2232
10.66,0.2356,-0.0068,9.9966,-2.2252,-6.3537,-0.6333
10.68,0.097,-0.0959,9.9111,-3.4679,-6.6363,-1.6159
10.7,-0.0417,-0.0514,9.8244,2.1407,-4.2792,-0.2154
10.72,0.0034,0.0613,9.9095,1.3137,-5.1407,0.0362
10.74,-0.2123,0.0322,9.9804,4.9687,-5.0044,2.6539
10.76,-0.265,0.078,10.0107,7.1637,-4.2178,2.2771
10.78,-0.3038,0.0991,10.129,4.8635,-4.5687,1.8064
10.8,-0.2407,0.0186,10.239,12.2546,-2.9134,1.9034
10.82,-0.4339,0.092,10.1021,5.8574,-0.2802,3.0456
10.84,-0.2757,0.0468,10.2042,9.0071,-0.6068,0.9554
10.86,-0.3033,0.2206,10.2799,6.4711,1.0649,1.5406
10.88,-0.2304,0.1312,10.2227,4.8,1.226,3.1883
10.9,-0.3675,0.1815,10.1348,7.9033,1.9143,2.2045
10.92,-0.2809,0.3123,10.1005,9.0994,4.0113,0.8063
10.94,-0.1901,0.1733,10.0637,9.2715,2.6841,0.0872
10.96,-0.1512,0.2224,9.9628,6.2918,5.5809,-0.0958
10.98,-0.1202,0.3372,9.8043,4.6023,4.0037,-0.9537
11.0,0.0441,0.3277,9.7867,4.8494,1.8909,-2.6561
11.02,-0.1204,0.2474,9.7946,3.3663,1.8832,-2.9271
11.04,0.0484,0.3768,9.9132,4.8565,5.6666,-3.5038
11.06,0.1894,0.2728,10.1012,0.2354,6.4067,-3.3385
11.08,0.1859,0.1937,10.0571,-2.2986,3.5452,-2.9086
11.1,0.3846,0.1976,10.1208,-3.3465,1.9899,-2.945
11.12,0.2302,0.191,10.1743,-3.8327,3.6621,-2.9137
11.14,0.3683,0.2474,10.2518,-4.3006,1.8477,-1.6623
11.16,0.3266,0.215,10.2033,-7.0356,1.5966,-2.1332
11.18,0.3073,0.1151,10.1408,-7.7283,-0.7675,-0.6676
11.2,0.4586,0.0872,10.1739,-7.5802,-0.3602,-0.0333
11.22,0.3063,0.1132,10.165,-9.8084,-3.4032,0.3237
11.24,0.2135,0.0761,10.0844,-5.5826,-4.5019,0.5784
11.26,0.1571,0.0744,10.0843,-12.5055,-5.2965,1.6395
11.28,0.2243,0.095,9.903,-7.7294,-5.0644,3.2202
11.3,0.1048,0.073,9.8936,-8.2961,-5.6214,2.1377
11.32,0.0362,0.0105,9.8816,-6.0448,-4.9636,1.8781
11.34,0.0256,0.0574,9.9186,-9.617,-3.4637,1.3999
11.36,-0.0873,-0.1193,9.963,-8.4509,-1.135,2.9322
11.38,-0.3449,-0.1062,10.035,-6.4078,-8.8388,2.5416
11.4,-0.1751,0.0012,10.1439,-4.6744,-1.9457,1.1548
11.42,-0.4018,-0.1705,10.2566,-2.8336,-3.5919,1.2198
11.44,-0.4162,-0.1566,10.2924,-2.4689,-1.0967,0.3053
11.46,-0.3891,-0.0749,10.1567,1.639,-1.0793,-1.0914
11.48,-0.3435,-0.1288,10.1622,0.0178,3.026,0.4614
11.5,-0.3203,-0.2102,10.1597,0.5559,5.5044,-1.8985
11.52,-0.2814,-0.1208,10.1222,3.4575,3.1316,-3.9653
11.54,-0.2219,-0.3012,10.0764,3.2443,5.6294,-0.7561
11.56,-0.2255,-0.2623,9.9737,3.1206,2.886,-0.6203
