time_s,Ax,Ay,Az,Gx,Gy,Gz
0.0,-0.0774,0.2536,9.7719,3.2957,6.9053,1.6558
0.02,0.0003,0.2358,9.9128,-0.3283,5.5803,-0.1861
0.04,0.1099,0.2449,9.9625,2.698,4.0979,3.9929
0.06,0.257,0.2519,10.1367,4.04,6.0358,1.8976
0.08,0.2174,0.2561,10.1402,4.1224,2.5304,1.2941
0.1,0.2678,0.2781,10.1405,6.0846,4.0789,3.0046
0.12,0.2424,0.1714,10.1531,4.4608,3.6229,2.6806
0.14,0.3199,0.1302,10.2242,3.9507,0.1306,3.5225
0.16,0.2975,0.4041,10.2208,8.0837,-3.559,2.7764
0.18,0.3881,0.1563,10.2224,6.2723,-1.7354,1.3579
0.2,0.1324,0.1691,10.1923,6.687,-2.6405,0.116
0.22,0.2395,0.0791,10.0489,6.7088,-0.2439,0.193
0.24,0.1744,0.0555,9.9498,5.2955,-6.801,-0.1603
0.26,0.148,-0.0073,9.8808,6.3127,-3.6637,-0.2745
0.28,0.1616,-0.0027,9.8501,6.1501,-5.0525,-1.4504
0.3,-0.2513,-0.0588,9.8617,3.0849,-5.6257,-2.488
0.32,-0.1359,-0.0755,9.9045,2.6715,-4.5938,-2.0161
0.34,-0.2633,-0.0074,10.1248,3.2221,-3.8224,-3.6557
0.36,-0.3092,-0.0618,10.1546,-0.3903,-3.8425,-0.4409
0.38,-0.2875,-0.0959,10.1901,-4.8663,-3.368,-3.2885
0.4,-0.3764,-0.2353,10.3154,-1.0576,-0.3871,-3.3753
0.42,-0.4007,-0.1754,10.1603,-2.0179,0.6746,-1.9891
0.44,-0.3312,-0.1794,10.1636,-5.4292,2.9719,-0.3665
0.46,-0.2065,-0.2091,10.2163,-6.7482,1.5906,-1.8672
0.48,-0.2171,-0.1955,10.1406,-7.8874,1.9185,0.0459
0.5,-0.1525,-0.2517,10.1381,-6.9133,1.2127,0.9912
0.52,-0.2466,-0.2614,10.07,-9.0309,4.9613,1.26
0.54,-0.1017,-0.1867,9.9914,-11.9816,6.2899,2.2599
0.56,-0.0446,-0.2895,9.8893,-7.9076,3.9159,2.4512
0.58,-0.0667,-0.1853,9.9312,-8.7346,5.7517,2.7058
0.6,0.0927,-0.189,9.9385,-8.1054,3.6665,2.9116
0.62,0.1606,-0.1785,9.9941,-5.4406,3.8133,4.1963
0.64,0.1781,-0.1761,10.0333,-4.0432,-0.336,2.0972
0.66,0.1968,-0.2679,10.1309,-2.36,3.5581,2.2733
0.68,0.3067,-0.1177,10.1363,-0.6168,3.8783,1.4745
0.7,0.3119,-0.2442,10.2162,-0.0395,1.2517,0.3407
0.72,0.3126,-0.1775,10.3107,1.886,-1.0304,0.8261
0.74,0.267,-0.1612,10.1202,3.0059,-1.2381,-1.7452
0.76,0.4504,-0.1234,10.1627,3.4566,-4.8526,-1.4801
0.78,0.2918,-0.0692,10.0831,4.0885,-4.0058,-2.1657
0.8,0.1355,-0.0466,9.987,5.6661,-4.614,-1.5576
0.82,0.072,-0.0663,9.8744,5.2102,-6.8604,-2.6968
0.84,0.0045,-0.0788,9.8342,4.7033,-4.7593,-3.6384
0.86,0.0295,0.0186,9.8202,9.5847,-2.6223,-3.9917
0.88,-0.0703,0.0252,9.9278,6.4854,-4.1873,-2.1415
0.9,-0.198,0.1316,10.0414,8.2441,-5.7913,-3.3431
0.92,-0.1531,0.1185,10.0865,7.4858,-4.0434,0.1016
0.94,-0.1698,0.0653,10.1541,8.2348,-4.4795,-2.6002
0.96,-0.482,0.147,10.2644,3.9724,-1.8121,0.6291
0.98,-0.4784,0.2081,10.2534,5.2551,0.0552,0.6609
1.0,-0.2651,0.1113,10.1975,4.1534,0.2746,2.1994
1.02,-0.4773,0.1886,10.2242,0.5673,1.1123,1.8426
1.04,-0.1984,0.169,10.2722,-3.2693,2.9148,3.8461
1.06,-0.1885,0.1551,10.0375,2.4622,4.3274,4.8784
1.08,-0.0519,0.1531,10.1977,-1.7824,2.0336,0.7533
1.1,0.0295,0.2869,9.9271,-1.4224,4.1777,4.6282
1.12,-0.1506,0.1852,9.9857,-2.0012,4.6485,3.6546
1.14,-0.1104,0.2392,9.8967,-3.5398,5.1374,2.8695
1.16,-0.091,0.2383,9.8305,-4.282,6.2964,1.9121
1.18,0.1017,0.1577,9.8969,-7.4127,3.1344,0.576
1.2,0.2398,0.2651,10.0414,-3.0993,3.4356,-0.2924
1.22,0.2562,0.1491,10.1731,-5.1813,2.691,-0.6235
1.24,0.2411,0.255,10.1287,-7.5603,3.3017,-2.4767
1.26,0.3176,0.2658,10.1331,-3.5852,0.5393,-2.4589
1.28,0.2644,0.3012,10.2504,-5.2164,-3.0881,-2.5684
1.3,0.4203,0.1087,10.1826,-5.7137,-2.8601,-2.353
1.32,0.3471,0.1395,10.2391,-5.5005,-3.2417,-3.2312
1.34,0.2572,0.1968,10.125,-5.6291,-3.9503,-1.9609
1.36,0.209,0.1016,9.9919,-2.4264,-4.3927,-1.2725
1.38,0.1572,0.0978,10.0596,0.9837,-2.8374,-1.8079
1.4,0.288,-0.0533,9.8027,-2.8932,-4.6822,-1.5743
1.42,0.0506,-0.0007,9.9201,-6.9465,-5.0478,-0.6175
1.44,-0.0736,-0.0031,9.8788,3.5322,-3.7078,1.3695
1.46,-0.1868,-0.1392,9.9086,-0.718,-4.273,2.4672
1.48,-0.237,-0.0688,9.9693,1.1629,-3.5982,0.1963
1.5,-0.2681,-0.0544,10.0916,8.8406,-0.9521,2.8461
1.52,-0.3302,-0.1343,10.1542,5.2105,0.2152,1.2322
1.54,-0.3511,-0.1639,10.3124,6.1444,0.607,2.7645
1.56,-0.3763,-0.1931,10.1897,10.9623,-0.4061,2.5912
1.58,-0.3962,-0.1739,10.2763,10.6965,3.4902,2.1371
1.6,-0.3333,-0.1289,10.2015,8.4215,2.3827,2.2866
1.62,-0.2974,-0.3179,10.1723,5.0835,2.5472,1.9821
1.64,-0.3148,-0.2317,10.1303,10.3454,4.5385,0.7475
1.66,-0.1314,-0.2635,10.0749,11.4011,2.857,0.1462
1.68,-0.2081,-0.3815,9.8984,2.7564,6.1389,-1.3418
1.7,-0.1666,-0.2194,9.8208,4.3633,5.5418,-0.7042
1.72,0.0719,-0.3032,9.82,6.7718,2.0234,-1.4248
1.74,-0.0297,-0.3526,9.9226,3.9029,5.9831,-3.2264
1.76,0.0676,-0.1334,10.007,-2.3534,2.1561,-3.8741
1.78,0.1534,-0.2017,10.0452,1.8878,6.5711,-3.4846
1.8,0.2864,-0.2551,10.1676,-1.8336,1.632,-1.5345
1.82,0.4576,-0.1678,10.1555,-3.0844,0.4885,-2.5823
1.84,0.1911,-0.1749,10.2279,-8.1465,-1.3054,-1.9445
1.86,0.4848,-0.1492,10.2009,-0.5827,-0.3116,-0.6832
1.88,0.3292,-0.1373,10.2309,-5.1916,-3.7827,-1.4819
1.9,0.3273,-0.0828,10.0993,-5.8998,-2.0365,1.083
1.92,0.3827,-0.1215,10.0765,-6.8445,-2.8086,0.8277
1.94,0.0825,-0.0336,10.0666,-5.9684,-3.0674,0.5412
1.96,0.2236,-0.0464,9.8789,-6.159,-4.7025,0.9405
1.98,-0.0281,-0.0924,9.9337,-6.1938,-4.8709,2.8656
2.0,0.0608,0.0938,9.8455,-8.3696,-7.0967,1.5474
2.02,-0.0192,0.0349,9.9886,-5.5749,-6.209,1.7563
2.04,-0.1283,0.0573,10.0034,-7.091,-3.7209,2.3542
2.06,-0.1442,0.0151,10.0935,-6.9236,-1.7281,2.004
2.08,-0.1113,0.1239,10.1732,-4.1278,-1.7254,2.4439
2.1,-0.3809,0.1774,10.0904,-3.9747,-3.0945,1.8619
2.12,-0.2865,0.1576,10.2767,0.8815,-1.0923,-0.1204
2.14,-0.3856,0.1096,10.1619,0.3828,-1.3755,0.3946
2.16,-0.3404,0.2229,10.1687,-1.2126,2.0882,0.1819
2.18,-0.3655,0.2516,10.0342,-0.3074,0.0117,-1.6827
2.2,-0.259,0.2979,10.1515,0.984,6.1616,-4.2666
2.22,-0.1992,0.2137,10.0826,6.9112,3.6382,-1.7703
2.24,-0.2383,0.3533,9.9731,4.3093,5.3798,-2.9211
2.26,0.1627,0.1785,9.9107,6.2584,5.9863,-4.8345
2.28,0.1054,0.2939,9.861,5.5397,3.5957,-3.5526
2.3,0.0003,0.1592,9.7613,6.8699,5.0912,-3.6555
2.32,0.0444,0.3229,9.9973,8.0154,6.0156,-2.2201
2.34,0.382,0.1856,9.9885,6.0645,5.2685,-0.6101
2.36,0.428,0.2717,10.1412,5.8875,3.7301,-0.6077
2.38,0.3048,0.1378,10.1495,4.896,2.6612,0.4077
2.4,0.2166,0.2612,10.1722,7.2605,-1.1122,1.3357
2.42,0.3346,0.2073,10.2575,3.6443,1.0473,1.5673
2.44,0.2691,0.123,10.1919,2.7144,-0.0494,2.6005
2.46,0.3073,0.1879,10.2498,5.2101,-2.6002,2.1276
2.48,0.2469,0.1113,10.1992,1.272,-5.6746,5.6418
2.5,0.2213,0.0434,10.0504,2.2923,-0.6115,2.7051
2.52,0.153,0.1668,10.0866,-1.8527,-4.8906,3.0399
2.54,-0.028,-0.0612,9.836,-0.2633,-4.5996,2.3224
2.56,0.0787,0.0416,9.8079,-3.2035,-3.1928,1.2793
2.58,-0.1686,-0.1397,9.8433,-8.3172,-4.8409,2.2667
2.6,-0.2139,-0.1149,9.9766,-4.4061,-5.0983,0.1771
2.62,-0.2915,-0.2269,10.0498,-6.9659,-1.4386,0.0895
2.64,-0.3232,-0.0936,10.0701,-8.2418,-3.0242,-1.6446
2.66,-0.2689,-0.0538,10.1612,-7.8165,-4.0016,-2.1509
2.68,-0.473,-0.2432,10.2156,-11.7763,-1.6756,-1.9049
2.7,-0.2536,-0.1136,10.1872,-3.9786,0.3509,-2.4275
2.72,-0.2808,-0.1402,10.1821,-6.5975,2.3853,-2.5113
2.74,-0.4903,-0.1229,10.2535,-5.5391,2.0846,-3.027
2.76,-0.3725,-0.2377,10.2032,-7.4781,-1.7047,-1.2814
2.78,-0.3354,-0.2161,10.2122,-2.6263,2.1611,-2.9299
2.8,-0.1351,-0.1669,10.0547,-1.7241,6.1531,-2.1003
2.82,-0.102,-0.188,9.9366,-6.9952,4.4214,-0.1597
2.84,-0.0625,-0.0979,9.901,-0.0283,3.5988,-1.7342
2.86,0.0566,-0.1876,9.9125,-0.2788,6.1782,0.1351
2.88,0.1728,-0.2581,9.9778,5.6886,5.2211,1.8899
2.9,0.0167,-0.3575,9.9806,1.444,6.4056,3.0134
2.92,0.267,-0.2942,9.9738,5.3809,4.8715,1.3737
2.94,0.1432,-0.1436,10.1346,4.8295,5.3037,1.3339
2.96,0.3238,-0.3975,10.2091,5.0655,1.6365,0.7169
2.98,0.2412,-0.2312,10.1746,6.0059,-1.2008,2.2371
3.0,0.6236,-0.0792,10.1754,12.1897,-0.1049,2.0847
3.02,0.2389,-0.1447,10.084,7.0319,-0.667,1.4869
3.04,0.3404,-0.1307,10.2285,6.6043,-0.7623,0.3157
3.06,0.4484,-0.1501,10.1972,6.3477,-3.502,1.1082
3.08,0.1068,-0.1106,10.0786,7.1201,-4.5843,0.132
3.1,0.2236,-0.0664,10.0088,6.1605,-3.9243,-1.4204
3.12,0.2103,0.0017,9.8728,4.0856,-5.1175,-0.903
3.14,0.0048,-0.0325,9.8741,2.9702,-4.3998,-0.6028
3.16,-0.1558,0.0325,9.8872,1.7166,-4.8817,-2.4461
3.18,-0.1448,0.0954,9.8942,-0.5403,-2.5619,-3.4718
3.2,-0.021,0.1632,9.9935,1.9634,-6.7002,-2.6121
3.22,-0.293,0.1656,10.107,2.468,-3.6552,-4.1123
3.24,-0.3005,0.1468,10.1066,-1.4544,-1.4665,-3.1248
3.26,-0.2206,0.1247,10.1919,-5.8561,1.2213,-1.9252
3.28,-0.2684,0.1311,10.2679,-5.0584,-1.1401,-3.0213
3.3,-0.3306,0.2578,10.0983,-4.1291,0.6645,-1.3541
3.32,-0.2144,0.142,10.1677,-5.855,1.5113,-1.6374
3.34,-0.3053,0.1549,10.1766,-9.3587,3.7821,-0.5321
3.36,-0.161,0.2553,10.0997,-8.2808,5.3536,1.6399
3.38,-0.2357,0.1756,10.0206,-9.7088,6.05,1.9324
3.4,-0.1551,0.2368,9.8399,-9.6061,3.556,1.1545
3.42,0.1095,0.2402,9.7461,-10.6049,5.4795,3.0108
3.44,-0.043,0.1875,9.9581,-9.6243,5.8317,5.5555
3.46,0.1531,0.2147,9.9589,-7.699,2.9756,2.761
3.48,0.2134,0.2304,10.0036,-3.1554,4.5803,4.3909
3.5,0.3288,0.1961,9.9794,-2.715,4.8643,3.1543
3.52,0.2435,0.2034,10.1219,-2.0218,3.0537,1.4818
3.54,0.3687,0.2042,10.2531,-3.0432,0.8923,1.4905
3.56,0.4762,0.1357,10.2168,0.565,-0.2524,0.254
3.58,0.3074,0.2012,10.2327,1.9001,0.1161,0.2045
3.6,0.3712,0.1273,10.1424,0.4959,-1.0264,-3.8558
3.62,0.2322,0.1451,10.1529,5.1754,-5.1178,0.1019
3.64,0.0537,0.1443,10.1018,0.2475,-3.4772,-2.8941
3.66,0.1183,0.0822,9.967,6.5757,-2.3566,-4.6133
3.68,0.1845,0.0123,9.9494,7.7218,-4.3854,-5.1194
3.7,0.1327,0.0655,9.8776,7.9488,-5.3607,-3.7077
3.72,0.0363,-0.1517,9.7936,7.3501,-5.9358,-3.6965
3.74,-0.1755,-0.0467,9.9614,5.9758,-5.0005,-0.395
3.76,-0.0993,-0.0622,10.0476,7.8853,-3.5023,-2.5557
3.78,-0.3427,-0.1763,10.0943,7.6393,-3.1089,-0.5212
3.8,-0.2619,-0.1373,10.1468,6.9179,-0.2574,-0.4002
3.82,-0.2747,-0.1733,10.1457,4.5091,-3.1456,-0.6109
3.84,-0.3695,-0.1032,10.1482,8.2667,1.8141,0.9312
3.86,-0.29,-0.2349,10.0928,3.6556,-0.245,3.7322
3.88,-0.3215,-0.2962,10.1393,3.7501,0.316,3.5326
3.9,-0.4179,-0.1921,10.14,3.5937,2.573,1.8454
3.92,-0.2149,-0.335,10.0789,4.0318,1.3718,2.9948
3.94,-0.2565,-0.2247,10.048,-1.8195,2.7577,3.2859
3.96,-0.2945,-0.2058,9.9698,2.4738,3.9414,0.8663
3.98,-0.0194,-0.1413,9.9059,-5.0308,6.7571,0.7653
4.0,-0.0664,-0.3574,9.8312,-3.3723,5.5305,1.0697
4.02,-0.0044,-0.2849,9.9209,-6.599,3.8701,-0.0712
4.04,0.1804,-0.3721,9.9616,-8.6483,2.4916,-0.8035
4.06,0.2328,-0.1708,10.0381,-6.2707,2.6479,0.7898
4.08,0.2985,-0.3086,10.0955,-4.4159,5.1653,0.0188
4.1,0.1473,-0.2072,10.2453,-7.4167,0.6544,-3.2891
4.12,0.5457,-0.0861,10.132,-9.9118,1.4394,-2.8209
4.14,0.2625,-0.1978,10.2117,-8.3834,-0.2038,-3.7209
4.16,0.3954,-0.1318,10.2136,-9.1684,-2.5175,-1.17
4.18,0.2007,-0.1764,10.2345,-7.4268,-2.0694,-3.9063
4.2,0.3617,-0.1854,10.1237,-5.7333,-5.1853,-3.2914
4.22,0.3152,-0.0895,10.0555,0.8078,-5.3583,-0.9201
4.24,0.1178,-0.1783,10.0205,-0.8941,-3.2095,-1.7281
4.26,0.072,-0.1275,9.8856,-1.9649,-3.0621,-1.4224
4.28,0.1293,-0.0502,9.7678,3.5354,-3.261,-0.0156
4.3,-0.0051,0.0683,9.8809,1.2412,-7.5965,2.8818
4.32,-0.1985,0.0892,9.9804,5.3983,-4.9789,3.7991
4.34,-0.0826,0.1351,10.0358,3.1316,-4.3754,3.5237
4.36,-0.3156,0.1127,10.0989,3.5548,-0.3635,4.5951
4.38,-0.1743,0.0519,10.1612,4.4609,-5.9027,2.5877
4.4,-0.1739,0.1642,10.1728,5.0448,-3.5613,2.5018
4.42,-0.5124,0.192,10.1458,7.8667,-0.8111,3.2286
4.44,-0.5139,0.1258,10.1346,4.2396,1.6318,-0.8308
4.46,-0.4037,0.2758,10.2122,5.2141,5.4492,2.3154
4.48,-0.2843,0.1676,10.1867,9.083,4.7725,0.0539
4.5,-0.3213,0.2566,10.099,7.1654,4.473,-0.7934
4.52,-0.2086,0.2119,10.011,6.8353,7.0454,0.0781
4.54,-0.0773,0.1722,9.9129,5.8677,5.6534,0.4523
4.56,-0.0137,0.2837,9.765,6.8922,4.0831,-0.0515
4.58,0.0612,0.3536,9.8953,2.0654,7.6788,-3.3288
4.6,0.1321,0.2415,9.9458,1.6641,6.0453,-1.5027
4.62,0.1829,0.2859,9.9493,3.2515,4.4819,-3.7446
4.64,0.2355,0.1279,10.0672,-1.6689,2.8601,-3.6552
4.66,0.21,0.1891,10.1492,-1.9152,2.4999,-2.2037
4.68,0.2957,0.1886,10.1739,-0.9897,1.4067,-3.0796
4.7,0.452,0.1754,10.1991,-0.7868,-2.7328,-1.8724
4.72,0.318,0.153,10.2766,-7.1721,-3.0473,-0.7913
4.74,0.3386,0.206,10.2178,-6.8714,-2.346,-0.7852
4.76,0.1816,0.1618,10.1325,-10.0738,-0.6485,1.4076
4.78,0.4098,0.0331,10.0769,-2.3279,-4.5632,1.5307
4.8,-0.0002,0.0963,10.1031,-9.0613,-4.3704,1.5092
4.82,0.1176,0.0492,9.9363,-7.297,-5.1902,1.3529
4.84,0.0953,0.0936,9.8917,-6.7151,-7.2117,2.0545
4.86,-0.023,0.0254,9.8867,-10.0209,-2.153,2.6779
4.88,0.0231,-0.0674,9.9425,-4.8252,-3.5373,2.0431
4.9,-0.2885,-0.1205,9.9748,-8.0469,-4.6266,2.2055
4.92,-0.1464,-0.1304,10.1329,-2.9312,-5.7251,3.8279
4.94,-0.3199,-0.1231,10.1528,-4.7978,-1.7827,2.3586
4.96,-0.356,-0.1077,10.1472,-4.8664,-1.1022,1.4798
4.98,-0.3356,-0.1321,10.1862,2.6179,-1.5733,-0.154
5.0,-0.1863,-0.2641,10.1381,-1.6385,0.0441,-1.2243
5.02,-0.4785,-0.209,10.2044,3.276,2.8949,-2.5532
5.04,-0.3808,-0.1799,10.258,4.3629,3.2911,-2.9329
5.06,-0.2104,-0.2394,10.1445,6.4258,3.4136,-1.2068
5.08,-0.3107,-0.254,9.9932,7.2986,2.6334,-1.5596
5.1,-0.0759,-0.2067,9.9424,7.1829,5.4342,-3.0593
5.12,-0.1368,-0.3758,9.9264,5.8086,4.6905,-3.3263
5.14,-0.0116,-0.1272,9.7655,6.0003,4.0511,-2.1695
5.16,0.2578,-0.2048,9.97,7.6952,5.9014,-3.2571
5.18,0.0867,-0.1886,10.038,7.2529,5.5619,-1.3066
5.2,0.1195,-0.2631,9.9648,6.3114,2.9175,-2.404
5.22,0.363,-0.1899,10.1789,6.481,4.7928,-0.5468
5.24,0.4017,-0.1596,10.1522,5.7561,3.2699,0.8357
5.26,0.371,-0.2442,10.1379,5.117,3.0467,2.8496
5.28,0.3622,-0.1115,10.3174,8.1926,-1.1946,0.3561
5.3,0.2997,-0.209,10.2533,4.7421,-3.9716,3.1826
5.32,0.2925,-0.1188,10.1288,2.074,-4.7257,2.9872
5.34,0.2745,-0.0819,10.1368,0.6565,-1.7752,2.1338
5.36,0.2982,-0.0632,10.1375,-3.5044,-5.8941,4.7011
5.38,0.1336,0.0494,9.9547,1.9802,-0.1478,1.8636
5.4,0.0735,0.0003,9.8997,-5.2059,-4.8313,2.8258
5.42,0.1498,-0.1083,9.7463,-3.5008,-5.466,1.7008
5.44,0.1477,0.0728,9.9058,-7.8096,-5.3222,2.6411
5.46,-0.311,0.0807,10.0731,-7.1097,-5.1943,0.3591
5.48,-0.2195,0.0724,10.0151,-10.566,-5.3713,-0.8564
5.5,-0.218,0.2037,10.0752,-8.8912,-3.4824,-0.1749
5.52,-0.2757,0.1535,10.2064,-6.7485,-3.1097,-2.4222
5.54,-0.3053,0.1616,10.2397,-8.7343,-0.079,-3.7227
5.56,-0.5825,0.1822,10.1103,-9.5915,0.1813,-2.8878
5.58,-0.3108,0.2828,10.2285,-4.5058,2.5729,-3.9452
5.6,-0.216,0.1886,10.2287,-7.4594,3.6809,-2.5375
5.62,-0.1615,0.1773,10.1521,-3.4818,4.3602,-1.6921
5.64,-0.2654,0.2473,10.0843,-5.7475,4.338,-3.137
5.66,-0.211,0.2485,10.0857,-3.9972,3.1071,-1.3054
5.68,-0.0548,0.306,9.9646,-0.1432,2.3011,-0.4517
5.7,-0.019,0.267,9.9284,-0.1674,6.5299,0.2907
5.72,-0.0642,0.2351,9.8409,3.7638,5.5857,-0.6314
5.74,0.0682,0.2333,9.8428,1.921,5.448,1.2186
5.76,0.1445,0.2065,9.994,4.1534,2.8931,1.3731
5.78,0.31,0.1942,10.0621,2.7529,6.1505,1.6226
5.8,0.4304,0.2226,10.1849,3.222,6.2962,1.8845
5.82,0.368,0.1594,10.1928,2.4782,2.47,3.1678
5.84,0.4092,0.1549,10.1633,8.9069,1.0765,2.397
5.86,0.2658,0.3335,10.1513,8.4566,1.4777,3.5442
5.88,0.3203,0.1731,10.2016,8.1322,-1.7864,1.747
5.9,0.2505,0.1598,10.1534,6.0729,-4.5347,3.4819
5.92,0.2401,0.1088,10.0772,7.3206,-4.4228,0.7579
5.94,0.1722,-0.0344,10.0131,4.5828,-4.464,-0.8784
5.96,0.1373,0.0579,10.0194,3.0304,-2.9538,-0.6157
5.98,0.0224,-0.0861,9.8013,6.4619,-3.0653,-2.8449
6.0,-0.0699,0.0227,9.8574,4.9495,-4.0344,-3.1807
6.02,-0.1994,0.0592,10.0279,4.6877,-2.8522,-2.673
6.04,-0.1418,-0.0403,9.9245,3.508,-2.6118,-3.0873
6.06,-0.1698,-0.1367,10.0509,-0.5367,-4.803,-4.2069
6.08,-0.3372,-0.0691,10.1403,-1.537,0.0019,-2.8883
6.1,-0.2334,-0.1043,10.1641,-3.8148,-2.7229,-3.1299
6.12,-0.4026,-0.2293,10.274,-7.514,-3.3206,-2.3874
6.14,-0.2304,-0.2939,10.1124,-5.6069,-0.4624,-1.1383
6.16,-0.5406,-0.19,10.1863,-7.5137,3.9483,-0.2145
6.18,-0.2684,-0.2145,10.1568,-4.9767,3.4963,-0.7105
6.2,-0.3227,-0.3359,10.066,-7.2022,1.4937,0.2573
6.22,-0.4025,-0.3226,10.0851,-8.7417,3.3949,-1.0003
6.24,-0.2548,-0.256,9.8965,-9.9019,5.1718,2.0118
6.26,-0.1585,-0.1842,9.8977,-9.9056,5.6493,1.0745
6.28,-0.017,-0.1707,9.7879,-8.1749,6.959,3.1888
6.3,0.1619,-0.2922,9.852,-6.3124,4.4688,3.5297
6.32,0.1095,-0.2184,9.947,-11.0691,2.3485,3.4359
6.34,0.2285,-0.2564,9.9969,-0.5779,3.3669,1.5216
6.36,0.1818,-0.257,10.2074,-3.1761,0.245,2.5343
6.38,0.337,-0.1911,10.0486,-3.1506,1.5243,1.2335
6.4,0.3677,-0.206,10.235,-2.4074,4.0366,0.036
6.42,0.305,-0.2738,10.1654,-1.6739,-1.4746,1.0937
6.44,0.3475,-0.1277,10.2017,-0.149,2.1732,0.0206
6.46,0.3489,-0.2498,10.1462,1.1738,-0.6439,-0.2006
6.48,0.229,-0.1225,10.136,3.2478,-5.3099,-2.6723
6.5,0.3081,-0.0894,10.0828,6.8616,-3.7013,-1.6698
6.52,0.1106,-0.0798,10.0749,4.7407,-3.5808,-2.1873
6.54,0.1921,-0.0498,9.8373,6.8834,-3.982,-1.9236
6.56,-0.1519,0.0745,9.7861,9.8991,-3.5769,-2.8406
6.58,-0.0072,0.0542,9.9011,6.8119,-5.5571,-1.2541
6.6,-0.1454,0.091,9.9482,9.8783,-4.0805,-1.5895
6.62,-0.1988,0.0891,9.95,12.1831,-3.9335,-2.3167
6.64,-0.3344,0.0118,9.9981,11.6131,-3.0075,-2.0609
6.66,-0.254,0.2011,10.1238,5.6472,-3.3462,-0.7612
6.68,-0.4247,0.252,10.1582,4.0511,-0.4911,-0.5306
6.7,-0.3737,0.2005,10.1946,7.0115,-1.3625,-0.1374
6.72,-0.4268,0.2885,10.1963,4.1098,2.081,3.992
6.74,-0.336,0.2226,10.2116,2.8077,1.7101,1.9162
6.76,-0.2936,0.166,10.2111,1.4184,3.6997,2.9065
6.78,-0.4452,0.2516,10.1667,2.2714,1.9001,2.8571
6.8,-0.2027,0.262,9.9806,1.2413,2.9158,3.8583
6.82,-0.1161,0.1696,10.0534,-5.014,9.0146,1.5173
6.84,-0.1452,0.2608,9.8872,-6.3906,3.1308,3.3402
6.86,0.0072,0.2784,9.8299,-6.5052,3.8036,1.1596
6.88,0.1034,0.1039,9.8804,-8.4434,4.5268,0.3749
6.9,0.2598,0.3393,9.9683,-9.8857,2.9645,0.9083
6.92,0.1791,0.2049,10.0536,-5.8791,4.1163,-3.1965
6.94,0.2417,0.3454,10.1589,-7.4057,5.8691,-2.9111
6.96,0.3254,0.2599,10.2022,-8.4131,0.286,-1.9607
6.98,0.4708,0.1319,10.1028,-7.7658,1.7708,-1.3524
7.0,0.3731,0.2047,10.1666,-4.4747,-0.6509,-2.2071
7.02,0.2923,0.1228,10.1039,-11.4148,-3.1063,-2.5728
7.04,0.3492,0.0685,10.2338,-6.011,-3.4321,-3.9192
7.06,0.3169,0.0603,10.1687,-2.7626,-3.9415,-2.8951
7.08,0.1738,0.0883,10.0053,-4.533,-1.1112,-2.809
7.1,0.2348,0.1474,10.016,-2.0003,-6.0467,-2.8922
7.12,0.0525,-0.009,9.8439,-0.0511,-5.3132,-0.6665
7.14,0.0599,-0.1224,9.7466,2.2468,-4.0131,1.2395
7.16,-0.1779,0.0491,9.8184,0.7231,-5.3002,0.6586
7.18,-0.122,-0.0369,10.0371,3.9199,-3.347,-0.302
7.2,-0.2782,-0.063,10.1256,1.8018,-1.9349,3.0002
7.22,-0.2589,-0.0648,10.1162,5.4598,-5.021,2.4835
7.24,-0.2039,-0.0521,10.1099,6.341,-3.99,3.0926
7.26,-0.3237,-0.0472,10.212,5.6961,-1.315,4.3576
7.28,-0.2272,-0.1035,10.2853,8.4294,-0.0735,1.3533
7.3,-0.3348,-0.2235,10.2128,7.2517,0.9075,2.7663
7.32,-0.2345,-0.2369,10.1575,12.0145,3.4696,0.9582
7.34,-0.3533,-0.2328,10.1616,7.3007,3.7204,1.4583
7.36,-0.2622,-0.321,10.0787,4.4585,5.1089,-0.2265
7.38,-0.1385,-0.2601,10.0145,4.7995,5.0998,-0.5633
7.4,-0.0453,-0.3217,9.9757,8.1063,4.4871,-0.2165
7.42,0.0454,-0.2573,9.749,6.7278,7.3088,-1.4269
7.44,0.2058,-0.2821,9.8579,2.7739,6.792,-2.4453
7.46,0.2812,-0.2388,10.034,3.5122,1.8201,-1.4162
7.48,0.0494,-0.1865,9.9827,-1.9443,1.9998,-1.4076
7.5,0.2587,-0.0775,10.0774,1.6978,3.5383,-3.3967
7.52,0.3264,-0.2103,10.236,2.6392,1.5822,-2.1735
7.54,0.2276,-0.1027,10.2962,-6.7484,2.5404,-3.3564
7.56,0.3869,-0.1377,10.2082,-2.4731,0.9389,-2.6641
7.58,0.5754,-0.156,10.2569,0.0178,-0.8831,-2.1106
7.6,0.2428,-0.1917,10.2049,-7.1401,-2.1989,1.2326
7.62,0.224,-0.2018,10.1529,-6.3113,-2.288,-0.8378
7.64,0.2101,-0.0413,10.0901,-11.5028,-1.8539,1.0625
7.66,0.075,-0.0936,9.9819,-7.5423,-4.9724,1.3648
7.68,0.0933,-0.0296,9.9129,-8.0716,-5.1123,3.584
7.7,-0.0222,-0.0732,9.8528,-8.3092,-5.3011,4.4536
7.72,0.1011,0.0047,9.7844,-9.4074,-4.1773,2.0401
7.74,-0.035,0.0834,9.8737,-7.0961,-7.0287,1.4206
7.76,-0.2674,0.0276,10.0951,-6.0064,-3.7261,3.6682
7.78,-0.4228,0.0132,10.1563,-4.3985,-6.8062,2.3517
7.8,-0.3546,0.1981,10.1236,-1.8966,-0.8627,2.7188
7.82,-0.4355,0.1007,10.2128,-0.6093,-2.4008,2.005
7.84,-0.519,0.1556,10.3114,2.9053,-2.3878,0.1641
7.86,-0.4737,0.1415,10.1009,-0.1636,0.4426,-1.0999
7.88,-0.339,0.1736,10.1924,1.3619,-0.6402,-0.7718
7.9,-0.3262,0.1853,10.1709,5.1939,3.5743,-0.7095
7.92,-0.0935,0.1347,10.1001,4.1593,3.5559,-3.0206
7.94,-0.1965,0.3035,10.128,5.0048,2.7118,-1.9043
7.96,-0.145,0.175,9.8443,5.4889,4.8761,-4.2002
7.98,-0.1489,0.3251,9.8565,5.5734,3.8367,-2.5705
8.0,-0.1093,0.2309,9.9061,8.8451,4.4074,-3.3595
8.02,0.1108,0.1898,9.8736,6.4713,6.9468,-2.2765
8.04,0.1662,0.3304,10.0264,6.1678,5.4889,-2.8575
8.06,0.2223,0.2134,9.9567,10.4766,3.3226,-1.547
8.08,0.1373,0.2713,10.1652,6.8836,2.9349,-1.05
8.1,0.2658,0.1915,10.1764,5.9057,0.7865,-0.8265
8.12,0.2532,0.2407,10.1613,3.9901,0.4922,0.3823
8.14,0.3988,0.2616,10.2317,4.0227,-0.9452,1.5272
8.16,0.3568,0.1578,10.2674,-0.0123,-2.3495,2.8035
8.18,0.2486,0.182,10.2155,-2.2593,-3.8828,5.3874
8.2,0.2145,0.0987,10.0558,3.467,-2.0081,2.0747
8.22,0.269,-0.0442,10.0379,1.7536,-0.729,3.1466
8.24,0.1891,0.021,10.0007,-2.9881,-3.7944,3.6702
8.26,0.1299,0.1452,9.9044,-2.8719,-6.4733,1.9715
8.28,0.0134,0.0423,9.7896,-5.3125,-7.3781,2.3619
8.3,-0.0312,-0.0849,9.8769,-3.4836,-3.7083,0.0715
8.32,-0.2406,-0.1487,9.9274,-7.4318,-4.6588,0.9798
8.34,-0.1964,-0.1417,9.992,-6.4719,-3.4589,-0.5958
8.36,-0.2379,-0.0481,10.1998,-7.3397,-3.3885,-0.6128
8.38,-0.3043,-0.056,10.159,-12.036,-2.3809,-3.301
8.4,-0.3638,-0.1495,10.2103,-11.1337,0.7945,-1.5094
8.42,-0.2506,-0.1985,10.1134,-8.9369,-1.8517,-2.8218
8.44,-0.3479,-0.1616,10.1591,-7.525,0.9466,-2.2968
8.46,-0.2566,-0.2614,10.1748,-9.5009,4.139,-2.5322
8.48,-0.1831,-0.1624,10.2105,-6.5822,4.0797,-3.0057
8.5,-0.29,-0.1945,10.0933,-7.2045,3.8166,-0.6717
8.52,-0.0775,-0.2578,9.9686,-2.472,5.0514,-1.4807
8.54,-0.0749,-0.3517,9.981,2.6266,5.6303,-0.4742
8.56,0.0429,-0.3292,9.8943,0.1958,4.1418,1.5133
8.58,0.0007,-0.189,9.8644,-1.4885,3.3137,1.1151
8.6,0.191,-0.2634,9.8829,3.2655,4.8616,-0.1791
8.62,0.1274,-0.2225,10.0782,4.1752,3.115,2.9706
8.64,0.239,-0.2414,10.0853,6.0025,2.6752,3.5611
8.66,0.2311,-0.2604,10.1313,8.2436,1.5959,1.7573
8.68,0.3769,-0.2764,10.224,5.6864,1.7125,3.2524
8.7,0.3025,-0.0854,10.1726,5.0576,0.9535,3.5583
8.72,0.4763,-0.201,10.1996,6.8051,-0.3329,2.5415
8.74,0.543,-0.1848,10.2834,7.3811,-3.5681,2.3607
8.76,0.188,-0.1225,10.2025,4.21,-4.9937,1.3906
8.78,0.3134,-0.1273,10.136,6.0909,-4.0106,0.2093
8.8,0.0379,-0.1254,9.968,5.7365,-4.3184,-0.0323
8.82,0.041,0.0229,9.902,5.6535,-4.1392,-0.6455
8.84,0.2453,0.0987,9.8482,8.2692,-5.5754,-0.9027
8.86,-0.047,0.0638,9.9116,5.3955,-5.7791,-2.1008
8.88,-0.1968,-0.0144,9.9041,4.3151,-3.6832,-2.9411
8.9,-0.2941,0.136,9.9413,-0.8243,-1.809,-3.2244
8.92,-0.128,0.156,10.032,0.9444,-2.8274,-3.8966
8.94,-0.2717,0.1089,10.1304,-1.0665,-0.5195,-3.31
8.96,-0.2457,0.2272,10.225,-6.1452,-3.7474,-1.2681
8.98,-0.3093,0.1417,10.1466,-4.3668,-1.7377,-3.1201
9.0,-0.3032,0.2249,10.1618,-5.4263,-0.8417,-2.4916
9.02,-0.3987,0.1854,10.1524,-7.5299,1.4323,-1.7454
9.04,-0.3572,0.1843,10.143,-8.744,1.6235,-0.3459
9.06,-0.4397,0.2663,10.0434,-6.6863,-0.0281,0.8641
9.08,-0.2936,0.3625,10.0536,-8.1521,3.4109,0.5876
9.1,-0.1984,0.1919,9.9085,-11.0261,4.1087,2.9999
9.12,0.0055,0.177,9.9108,-9.8717,5.9073,2.339
9.14,0.0514,0.3424,9.79,-7.6195,6.0686,1.2039
9.16,0.1534,0.2727,9.9188,-8.2619,4.6494,2.5232
9.18,0.2113,0.2183,10.051,-6.3319,3.3152,6.2119
9.2,0.2877,0.2255,10.0082,-6.5139,4.0086,3.1434
9.22,0.2591,0.1765,10.0423,-6.1382,3.3652,2.1412
9.24,0.4093,0.1759,10.2159,-2.6003,1.5964,1.4225
9.26,0.2078,0.1095,10.1527,-0.3288,0.5809,-0.3859
9.28,0.3973,0.2434,10.203,-1.079,-0.9146,1.2656
9.3,0.226,0.0666,10.2852,0.5271,0.4452,0.4117
9.32,0.383,0.1254,10.2094,6.2209,-4.7927,-2.5444
9.34,0.3672,0.0694,10.1805,-0.35,-2.2619,-1.8333
9.36,0.3594,0.0766,10.0607,5.7174,-3.1864,-1.5028
9.38,-0.0149,0.0191,9.9449,3.6912,-2.7036,-3.0269
9.4,0.0587,0.0795,9.8732,8.9978,-6.7309,-1.0084
9.42,0.0206,0.0107,9.8229,4.1301,-5.1619,-2.1027
9.44,0.0061,-0.1651,9.8955,7.5986,-3.9478,-2.5866
9.46,-0.3149,-0.1009,10.0753,7.9194,-5.8051,-1.8976
9.48,-0.2872,-0.0922,10.0348,7.3179,-2.6164,-0.9542
9.5,-0.1842,-0.146,10.1264,9.6204,-3.1668,1.3436
9.52,-0.1471,-0.2193,10.172,8.3289,-1.5298,1.4101
9.54,-0.2303,-0.1239,10.1802,8.1868,-0.9587,1.9495
9.56,-0.1915,-0.0808,10.173,7.7095,0.9808,2.6746
9.58,-0.4109,-0.1164,10.1706,3.2455,1.8186,2.1473
9.6,-0.3657,-0.1051,10.1782,-0.532,1.7774,1.0884
9.62,-0.3244,-0.1849,10.184,0.4335,1.7338,3.2135
9.64,-0.3402,-0.1708,10.0178,2.1317,4.1168,3.2149
9.66,-0.1823,-0.2593,10.0202,1.5419,3.436,3.3061
9.68,-0.0878,-0.1098,10.0071,-5.4445,4.2994,2.4418
9.7,0.1293,-0.2933,9.8588,-2.9081,3.2373,3.2106
9.72,-0.0146,-0.3191,9.8569,-5.8741,3.2367,2.4153
9.74,0.2291,-0.2282,9.9786,-3.1063,4.3381,1.2515
9.76,0.0802,-0.2007,10.1106,-7.7535,4.5143,0.9582
9.78,0.3644,-0.2938,10.0667,-8.9327,2.9214,-1.8171
9.8,0.4003,-0.1776,10.2015,-8.9748,4.9639,-1.1348
9.82,0.3112,-0.1802,10.2533,-6.006,1.9606,-1.0592
9.84,0.3457,-0.1441,10.2778,-9.1956,0.071,-2.4893
9.86,0.3709,-0.2026,10.1715,-11.1219,-0.4357,-4.3583
9.88,0.26,-0.1636,10.2527,-8.1521,-3.1845,-0.7618
9.9,0.2386,-0.1704,10.1003,-3.0687,-4.0079,-3.6599
9.92,0.2573,-0.1039,10.1159,-5.1488,-2.8458,-2.2579
9.94,0.183,-0.0594,10.0519,-2.0097,-6.0325,-2.4147
9.96,0.1202,-0.0628,9.9565,-2.0388,-6.6971,-1.9652
9.98,-0.0412,-0.0205,9.919,-2.5857,-5.368,-0.6104
10.0,0.0404,0.0083,9.8072,1.3717,-6.9489,-1.1487
10.02,-0.2256,0.0702,9.9102,1.6587,-7.0333,0.3026
10.04,-0.2235,0.085,9.9579,5.2031,-5.1313,1.9929
10.06,-0.1509,0.1732,10.0398,1.7664,-2.0817,2.9872
10.08,-0.2356,0.1108,10.0214,6.4788,-1.5017,1.3181
10.1,-0.3749,0.0308,10.2443,7.882,-1.7725,2.3619
10.12,-0.3541,0.1356,10.2734,8.7506,-4.6742,2.2314
10.14,-0.4067,0.1787,10.2362,6.8018,0.0437,3.3409
10.16,-0.3888,0.2234,10.1942,11.6221,1.3479,1.9457
10.18,-0.4544,0.2255,10.1487,8.6753,0.8843,-0.6244
10.2,-0.2625,0.2671,10.1315,11.6795,0.6876,2.4343
10.22,-0.255,0.2491,10.1094,6.8096,2.9466,-1.1081
10.24,-0.2314,0.2002,9.9773,6.2115,6.3681,1.0429
10.26,-0.0034,0.2373,9.8523,5.0617,5.6672,-2.0749
10.28,0.0113,0.2215,9.8692,5.1185,4.8406,-3.0829
10.3,0.0013,0.2343,9.8309,2.6505,0.1688,-3.2832
10.32,0.2014,0.277,10.1052,3.6159,3.4958,-0.9408
10.34,0.2525,0.303,9.9682,-0.9917,2.833,-1.7242
10.36,0.3471,0.186,10.2233,-1.4094,3.4755,-1.9117
10.38,0.2947,0.1479,10.0844,-1.345,3.3205,-3.9715
10.4,0.4999,0.2908,10.2489,-5.6546,-1.03,-3.711
10.42,0.395,0.2784,10.2101,-2.6745,1.8818,-1.3298
10.44,0.38,0.0942,10.3474,-7.1312,1.7771,-2.9546
10.46,0.4341,0.27,10.2004,-5.4024,-3.9811,0.9206
10.48,0.3274,0.0363,10.1524,-8.2334,0.2538,-0.1228
10.5,0.2007,0.0311,10.007,-8.8316,-5.2839,2.0435
10.52,0.1804,0.0975,10.0135,-6.478,-2.2972,2.8002
10.54,0.0467,0.0011,9.9079,-5.8462,-5.254,1.7036
10.56,-0.0589,-0.0842,9.7272,-6.4485,-3.9773,1.843
10.58,-0.0626,-0.1001,9.8661,-4.8618,-5.7519,2.3313
10.6,-0.0747,-0.055,9.9739,-6.5168,-4.1557,1.8182
10.62,-0.2007,-0.1516,10.0334,-4.9549,-4.9906,3.3067
10.64,-0.2373,-0.1397,10.0984,-6.2808,-4.0209,2.7159
10.66,-0.1724,-0.1539,10.1513,-3.7671,-4.3981,3.4525
10.68,-0.4674,0.0078,10.2632,-0.0684,-2.7878,0.3896
10.7,-0.2278,-0.1779,10.1637,-1.2139,4.0391,0.9203
10.72,-0.4069,-0.2322,10.1836,2.6844,2.089,-0.022
10.74,-0.4252,-0.1874,10.1894,1.5731,0.1318,-1.252
10.76,-0.1964,-0.2911,10.189,5.3566,4.2383,-0.4712
10.78,-0.1074,-0.2802,10.0223,7.4641,5.7697,-2.0942
10.8,-0.1355,-0.2369,10.1271,7.1625,5.7929,-2.4038
10.82,-0.1004,-0.2363,9.9372,9.7163,6.2555,-4.3132
10.84,-0.0268,-0.3049,9.8138,8.853,3.7297,-3.4939
10.86,-0.0812,-0.2841,9.8176,6.677,5.1756,-2.1377
10.88,0.0461,-0.2153,9.9193,12.4038,1.8168,-3.4409
10.9,0.317,-0.2052,10.0331,8.3313,6.0186,-2.0284
10.92,0.2714,-0.2114,10.1344,9.047,3.2488,0.4955
10.94,0.3439,-0.2902,10.0996,7.9004,1.9906,0.4245
10.96,0.3009,-0.2583,10.113,6.6823,2.4858,1.567
10.98,0.3834,-0.2373,10.2018,3.1088,0.779,2.7963
11.0,0.4136,-0.0754,10.1711,4.503,0.6353,2.9773
11.02,0.3189,-0.1542,10.158,4.0415,0.647,0.4791
11.04,0.2623,-0.1653,10.1681,3.3739,-2.8375,4.0805
11.06,0.1747,-0.1276,10.1342,3.3039,-1.5419,3.3506
11.08,0.1789,-0.1636,9.9824,-0.9103,-4.6024,2.9475
11.1,0.189,-0.0181,9.9601,-1.4454,-8.2166,1.426
11.12,0.1029,0.0245,9.8617,-6.4752,-6.8059,2.9047
11.14,0.012,0.037,9.8155,-4.9105,-3.7713,0.7923
11.16,-0.1045,-0.0488,9.9218,-3.821,-3.1215,1.1115
11.18,-0.1802,0.1131,10.004,-8.9062,-5.0342,0.8525
11.2,-0.1346,0.0561,10.089,-7.44,-4.5947,-1.6813
11.22,-0.3288,0.0897,10.0813,-4.905,-1.2394,0.2996
11.24,-0.338,0.0799,10.183,-7.259,-4.3134,-0.8609
11.26,-0.1814,0.2036,10.2973,-8.4517,-2.4473,-2.8057
11.28,-0.3733,0.0605,10.2282,-6.9494,-1.4509,-2.5017
11.3,-0.3888,0.2212,10.2147,-5.5006,4.4234,-3.324
11.32,-0.3978,0.1814,10.2545,-8.0277,2.9525,-0.9578
11.34,-0.1492,0.2519,10.1686,-2.6464,2.8464,-3.748
11.36,-0.175,0.2892,10.0767,-2.5032,3.1905,-2.2502
11.38,0.0058,0.1408,9.9689,-5.3338,8.5324,-0.89
