time_s,Ax,Ay,Az,Gx,Gy,Gz
0.0,0.006,-0.0068,9.8115,1.3732,0.8429,0.643
0.02,0.0086,-0.0073,9.8177,0.5044,0.1626,-0.3753
0.04,-0.0338,-0.0337,9.7724,0.1828,1.1859,0.7446
0.06,-0.0258,-0.0898,9.79,0.4448,-0.5894,0.4839
0.08,-0.0525,0.0041,9.7875,-1.3721,0.4475,-0.264
0.1,-0.0421,0.0222,9.8361,-0.8735,-0.4268,-0.5826
0.12,-0.0676,0.0314,9.7799,-0.0857,-0.309,0.0251
0.14,-0.0108,0.0528,9.7908,-0.3981,-0.8025,0.6586
0.16,0.0155,0.026,9.7545,0.4006,1.791,-0.6191
0.18,0.0464,0.0071,9.8234,-0.4802,0.5461,-0.168
0.2,0.0121,0.0482,9.805,-0.6171,-0.7572,-0.4308
0.22,0.0146,-0.0518,9.8183,-0.5008,-0.2223,-1.7695
0.24,-0.0394,-0.0004,9.813,0.3382,0.0531,0.0649
0.26,-0.0016,0.0656,9.8143,-0.4567,-0.5979,0.3204
0.28,0.0052,0.0136,9.8519,1.045,0.9178,-0.5323
0.3,-0.038,-0.0231,9.8247,1.1203,-0.7941,0.6548
0.32,0.0528,-0.0236,9.8446,-0.8127,-1.795,-0.5174
0.34,-0.0722,-0.0226,9.8559,0.1296,-0.5641,0.446
0.36,-0.0525,-0.0441,9.8162,0.3456,-0.6383,-0.465
0.38,0.0539,0.0295,9.8156,0.2503,-0.2316,0.9292
0.4,-0.0137,-0.0337,9.9081,-0.5401,-0.2405,-0.4995
0.42,0.0232,0.0802,9.81,0.3374,-0.1911,-0.5746
0.44,0.0032,0.0498,9.8197,-1.1584,-0.2401,0.7516
0.46,0.0752,-0.0659,9.8331,1.6238,0.0831,-0.4216
0.48,0.0597,-0.0835,9.8203,-0.0494,0.3226,-0.2266
0.5,0.0607,-0.0081,9.7841,0.2884,0.1556,-0.0275
0.52,0.0515,0.0481,9.7908,0.2949,0.4223,0.5358
0.54,0.0393,-0.0099,9.8083,1.0915,1.2314,-0.2537
0.56,-0.0082,0.0065,9.796,0.3041,-0.27,0.0467
0.58,0.0011,0.0488,9.8844,-0.3398,0.2512,0.157
0.6,0.0336,-0.0178,9.7882,0.3169,0.3997,-0.6462
0.62,-0.0109,-0.02,9.9029,0.0546,0.0817,-0.1278
0.64,-0.0062,-0.0104,9.7841,0.8816,-0.1586,0.9308
0.66,0.0073,0.0161,9.7702,-0.2647,0.1476,0.4007
0.68,-0.0074,0.0227,9.8083,0.8612,-0.8115,-0.1908
0.7,0.0629,0.0269,9.8168,0.0932,-0.8754,-0.8245
0.72,-0.0031,0.0045,9.7757,-1.2138,-0.0629,1.1162
0.74,0.0732,0.0458,9.7888,-0.4982,0.0853,-0.2784
0.76,-0.072,-0.0333,9.8359,-0.5809,0.9634,0.7705
0.78,0.0062,-0.0455,9.7597,-0.163,-0.1948,1.8545
0.8,0.0096,-0.0618,9.7943,-1.1028,0.8712,-0.8471
0.82,-0.011,0.0264,9.7906,-0.0189,-0.7051,-0.0337
0.84,0.0177,-0.0257,9.8255,0.5972,0.5977,-0.8228
0.86,-0.0469,0.0077,9.8799,1.8344,-0.8208,1.1141
0.88,-0.1366,-0.0286,9.8188,0.0772,0.4189,-1.0315
0.9,-0.0617,-0.0571,9.7835,0.2454,-1.7066,-0.4452
0.92,0.042,0.0144,9.8236,0.4713,-0.8315,-0.236
0.94,0.0586,0.0722,9.8049,-0.7156,-0.8461,-0.1201
0.96,0.008,0.0063,9.8109,-0.065,0.2247,-1.1001
0.98,-0.0639,0.0123,9.8209,0.5138,-0.1886,-0.1521
1.0,0.0614,0.0848,9.8049,-0.8354,0.1475,0.877
1.02,-0.0236,-0.0157,9.7661,-2.8318,0.0589,-0.6527
1.04,-0.0,0.0175,9.8111,0.4619,-0.5005,-0.347
1.06,-0.0104,0.0607,9.8257,-0.1304,0.4677,-0.9222
1.08,0.0061,-0.0591,9.8589,-0.1199,1.7074,0.3439
1.1,0.0864,-0.0271,9.8054,-1.0695,-0.0647,0.8229
1.12,-0.0023,-0.0399,9.8298,-0.8178,-1.5612,0.3674
1.14,0.0038,0.0263,9.7729,-0.7935,-0.8284,0.0362
1.16,0.0757,-0.0567,9.8283,-0.0889,0.1985,0.5374
1.18,0.0151,0.018,9.8126,0.2609,0.6802,-0.3671
1.2,-0.0056,-0.0376,9.8082,-0.2689,1.1996,-0.9633
1.22,0.0804,0.021,9.742,-0.78,-0.1729,-0.1532
1.24,-0.016,-0.0056,9.869,-0.4134,0.1584,0.0869
1.26,0.0444,-0.0551,9.7966,-0.2064,-1.2576,-0.5148
1.28,0.0727,-0.066,9.7863,0.3557,2.0422,0.4731
1.3,-0.0136,-0.0057,9.7646,1.1388,0.3477,-0.4171
1.32,0.0167,-0.0078,9.7994,-0.4677,-0.3006,-0.4304
1.34,-0.0377,0.0497,9.8268,-0.0605,-1.3276,0.0634
1.36,-0.0031,0.0503,9.8075,0.0353,-0.8678,0.3785
1.38,0.0679,-0.0757,9.8223,1.4986,-0.8296,1.1379
1.4,0.0124,-0.0291,9.7949,0.2751,0.1087,-1.5179
1.42,0.0162,0.0152,9.7924,0.7602,-0.3779,0.6071
1.44,0.0106,-0.0328,9.8627,-0.323,0.0902,-1.9691
1.46,0.0442,-0.0001,9.7981,-0.4118,0.4914,0.2187
1.48,0.0361,0.0133,9.8045,0.2001,1.0491,-0.1573
1.5,-0.0369,0.0015,9.7876,-0.9423,0.8201,0.3777
1.52,-0.0149,0.016,9.8317,0.4281,-0.8142,-0.1802
1.54,-0.0118,0.0031,9.813,0.171,0.195,-0.9883
1.56,0.0441,-0.0109,9.8069,0.8194,-0.4135,-0.5137
1.58,-0.0321,-0.0888,9.8329,0.2437,-0.4822,-0.6479
1.6,-0.0519,0.0854,9.8155,-0.6948,0.4992,0.1464
1.62,-0.0293,-0.0052,9.7921,0.0603,0.2734,1.2952
1.64,-0.0148,-0.0186,9.8264,-0.9344,-0.4078,-0.7513
1.66,-0.0376,-0.0312,9.861,0.7199,0.0849,-0.5667
1.68,0.0486,0.0049,9.7826,-0.7759,-0.8198,-1.1592
1.7,-0.0291,-0.0501,9.8446,-0.0547,0.4511,0.1204
1.72,-0.0093,-0.0228,9.8123,-0.9843,-0.0271,0.2013
1.74,0.0537,-0.05,9.8909,-0.6528,-1.2271,1.4879
1.76,-0.0033,0.0326,9.7772,0.3542,1.3388,-0.6662
1.78,0.0005,0.0352,9.8035,0.1419,-0.9632,0.1256
1.8,-0.0703,0.0562,9.8221,0.8338,-1.5764,-0.3354
1.82,-0.0104,-0.0491,9.8369,-0.5027,-1.6087,-1.218
1.84,-0.0182,0.0051,9.8116,0.1157,-0.3331,-0.4762
1.86,0.0036,-0.0254,9.8409,-0.0328,0.9054,-1.5401
1.88,0.0211,0.0406,9.7813,0.5423,0.0943,0.5478
1.9,0.0259,0.0453,9.8077,-0.0689,-0.6781,1.1098
1.92,-0.0501,-0.0093,9.7993,-0.118,-0.9904,1.2856
1.94,-0.0762,0.0271,9.7666,0.4385,-1.1272,0.6841
1.96,0.0403,0.0098,9.8155,0.2827,-0.7607,-0.6392
1.98,-0.0195,-0.1173,9.7963,-0.2545,0.4743,-0.583
2.0,0.0303,-0.0161,9.7817,0.5318,0.976,-0.8671
2.02,-0.0286,-0.004,9.7987,-0.7419,0.3223,-0.2598
2.04,0.0413,0.0694,9.8565,0.4344,-0.7011,0.4839
2.06,-0.0251,-0.012,9.8045,0.4828,-0.6801,1.0742
2.08,-0.0218,-0.0335,9.8229,0.0636,-0.5111,0.5467
2.1,-0.0038,0.0028,9.8387,1.5969,-0.8739,-1.3754
2.12,-0.0365,0.0312,9.8215,2.2585,-0.5673,-0.0527
2.14,-0.0537,0.0228,9.8464,-0.8782,0.4343,-0.6416
2.16,0.0222,-0.0597,9.787,0.5096,0.6891,-0.7157
2.18,0.0072,-0.0437,9.8399,0.3469,0.7372,-0.1548
2.2,0.0075,0.0132,9.8048,1.1781,0.9553,0.8506
2.22,0.0589,-0.0381,9.7679,-1.1775,-0.1527,-0.0758
2.24,0.0826,0.0224,9.8071,-0.6168,0.2706,-0.2847
2.26,0.0378,-0.0182,9.7847,-0.2889,-0.5292,-0.1879
2.28,-0.0558,0.0105,9.8385,0.2403,-1.2203,-0.0982
2.3,-0.0322,-0.0681,9.8364,1.5109,0.7171,-1.4558
2.32,0.0142,0.09,9.7935,0.0387,-0.8235,0.5566
2.34,-0.0396,0.0058,9.752,0.992,0.1132,0.168
2.36,0.0298,0.0111,9.7863,-1.2302,0.7533,-1.5062
2.38,-0.018,0.045,9.8104,1.4382,0.0462,0.4101
2.4,0.0558,-0.0613,9.8386,-0.6443,-1.3279,-0.0725
2.42,-0.0278,-0.0331,9.7958,0.8294,-0.8779,-0.015
2.44,-0.0586,-0.0598,9.8067,0.9614,0.5881,-1.3224
2.46,-0.0641,0.0446,9.8534,0.7825,-0.6959,1.6488
2.48,-0.0127,0.0331,9.8165,-0.7158,-0.3761,-0.2692
2.5,-0.0314,-0.0806,9.8609,-0.4832,0.582,-0.0866
2.52,0.0304,-0.0411,9.7835,0.017,0.5944,-0.4949
2.54,0.006,0.0075,9.8119,0.3581,-0.7307,-0.0538
2.56,0.0065,0.0252,9.788,0.4158,-0.771,0.8305
2.58,-0.0447,0.0174,9.883,-1.1265,0.5715,0.4244
2.6,-0.0492,0.0619,9.8086,-0.8407,-1.3376,0.3822
2.62,-0.0321,0.0332,9.8153,0.189,-1.5081,0.2218
2.64,0.0527,-0.0019,9.7707,-1.4383,1.4311,-0.3621
2.66,0.0382,0.0556,9.8479,-1.4238,-0.1749,0.8071
2.68,-0.0375,0.0102,9.7799,0.7241,0.4017,0.2944
2.7,0.0164,-0.0475,9.792,0.8375,-0.9315,-1.7969
2.72,0.0001,0.0348,9.7994,0.6846,0.1308,-1.4031
2.74,-0.0088,-0.0258,9.8469,-0.252,-0.4156,0.317
2.76,-0.008,0.0127,9.8289,0.1918,-0.8107,-1.206
2.78,0.0156,-0.0213,9.8246,-1.1845,-0.3816,0.448
2.8,-0.0922,-0.0321,9.783,-0.1834,-0.6315,-1.3256
2.82,-0.075,-0.0572,9.8333,-1.6895,-0.6779,-0.9501
2.84,-0.0016,-0.0243,9.8627,1.5885,0.752,-0.4562
2.86,0.0443,0.0925,9.8007,0.177,1.2984,-0.6315
2.88,-0.0047,0.0343,9.8283,0.0084,-0.5088,1.2463
2.9,0.0734,-0.0947,9.7638,-0.9952,0.9655,-0.1628
2.92,0.0704,-0.0456,9.8199,-0.5486,1.6222,0.2716
2.94,0.0303,-0.0242,9.842,-0.7429,0.4459,1.2188
2.96,-0.0707,-0.0581,9.7823,0.7091,0.4106,1.5636
2.98,0.0153,-0.0595,9.8659,-0.454,0.7072,-0.035
3.0,-0.0076,-0.022,9.8247,0.9021,-1.2846,-1.4249
3.02,0.0314,0.0235,9.8089,-1.2855,1.1718,-0.887
3.04,0.0151,-0.0242,9.8514,0.004,0.8017,1.9738
3.06,-0.0043,-0.0083,9.8395,-0.3713,0.8673,-0.131
3.08,0.0373,-0.0035,9.7797,0.9752,0.7852,-0.0574
3.1,-0.0333,-0.0103,9.8633,2.0313,0.0603,-0.4962
3.12,0.0387,0.0245,9.87,-0.0897,-0.2925,0.8237
3.14,-0.0626,0.0191,9.823,-1.1051,-0.2619,-0.2124
3.16,0.0182,0.0687,9.8052,0.6361,0.2011,1.3864
3.18,0.0121,0.0044,9.7808,-0.7822,0.5426,1.3055
3.2,-0.0257,0.0475,9.8099,-0.2985,-1.2317,-0.2009
3.22,0.0767,-0.0177,9.8401,0.813,-0.3593,0.4604
3.24,0.027,0.0085,9.7725,0.1234,0.5652,1.0531
3.26,0.0369,-0.0143,9.8104,-0.4234,0.3993,-0.8883
3.28,0.0438,0.0352,9.7672,-0.2343,-1.1458,-0.5774
3.3,-0.0083,-0.0499,9.8249,-0.3805,-1.0715,1.9599
3.32,-0.0192,-0.0271,9.7951,1.0541,-0.6745,-0.3719
3.34,0.0045,0.03,9.8285,0.1969,-0.0885,-0.8867
3.36,-0.0419,-0.0134,9.8372,-0.4198,0.7996,-0.243
3.38,0.0018,0.0018,9.8188,-0.6102,-0.3992,1.5824
3.4,-0.0179,0.0482,9.8082,-0.9835,0.7644,-0.3561
3.42,-0.0388,0.0107,9.8947,1.0558,-0.0518,1.7691
3.44,0.0346,-0.041,9.7796,0.6731,-1.0703,0.3173
3.46,0.0075,-0.0124,9.8503,-0.9397,0.3209,-0.1838
3.48,-0.0351,0.0604,9.8496,0.8559,-0.9933,-0.4519
3.5,0.013,0.0824,9.7967,-1.354,-0.6388,1.2064
3.52,-0.0329,0.0274,9.7671,0.1992,-0.4946,-0.7195
3.54,0.117,-0.0205,9.7618,-0.1565,0.176,-0.3078
3.56,-0.0326,0.0018,9.82,-1.1125,0.0168,-0.9222
3.58,-0.0191,-0.0751,9.7997,0.9805,0.5327,0.7694
3.6,0.021,0.0205,9.7703,-1.444,0.0057,-0.8444
3.62,0.0311,-0.0495,9.8379,0.1784,-1.2208,1.2494
3.64,0.0318,0.0805,9.8262,0.3063,-0.0513,-0.2854
3.66,0.0719,0.0236,9.8108,1.5293,-1.1768,0.1095
3.68,0.0159,-0.0263,9.8061,-0.8943,1.2292,-1.5776
3.7,0.0151,-0.0427,9.8129,0.9637,-0.1401,0.0839
3.72,0.0663,0.0206,9.8395,0.1578,0.184,1.4431
3.74,-0.05,-0.0526,9.765,0.1866,1.0493,-0.6216
3.76,0.024,-0.1009,9.8119,-0.2503,-0.1026,-0.4019
3.78,0.0111,-0.0167,9.7573,0.7532,1.2122,-0.5596
3.8,0.0085,-0.023,9.8306,-0.9689,-1.0628,-0.0984
3.82,-0.0362,0.0573,9.7969,0.6507,-1.3987,-0.2635
3.84,-0.0139,0.047,9.7904,-0.6972,2.1133,-2.2803
3.86,0.0253,0.0784,9.8098,0.5765,0.393,-0.3497
3.88,0.0193,0.025,9.8205,-2.1188,1.4136,-0.1634
3.9,0.0181,0.0023,9.7775,-0.5904,0.2504,0.8721
3.92,-0.0353,-0.0485,9.7853,-0.9118,0.0251,-0.8937
3.94,0.024,-0.0082,9.8204,-0.3087,-0.6405,-1.152
3.96,0.0088,0.0271,9.7839,-0.3405,0.0559,0.3729
3.98,0.0069,0.0757,9.8098,-0.6191,1.9105,-1.9204
4.0,0.0614,-0.0177,9.802,0.3145,0.4877,-0.2342
4.02,-0.0204,-0.0414,9.8102,-1.1318,0.2585,-0.0295
4.04,0.0349,0.0678,9.8016,-0.1465,-0.5553,0.217
4.06,-0.0385,-0.0603,9.7965,0.6777,0.1007,-1.6691
4.08,-0.0085,-0.0721,9.795,0.3179,0.1,-0.0766
4.1,-0.0176,-0.0364,9.7777,-0.6346,-0.7283,0.1204
4.12,0.0061,-0.0103,9.784,-0.8486,0.7032,-0.8103
4.14,-0.0145,-0.0782,9.8125,0.1534,-0.2581,-0.0356
4.16,0.0222,0.0106,9.7714,0.707,0.3327,0.1831
4.18,0.02,-0.009,9.7974,-0.3087,-1.0922,-0.5342
4.2,-0.0255,-0.0986,9.7581,-0.3483,-0.835,-1.709
4.22,-0.0272,0.0358,9.8392,-0.3188,0.143,-0.5877
4.24,0.034,0.0107,9.7965,-1.2667,0.2637,0.0341
4.26,-0.017,-0.0401,9.8457,-0.4344,1.1136,-0.5286
4.28,-0.0632,-0.0366,9.8269,0.1298,0.0257,-1.7569
4.3,-0.0024,-0.0007,9.8066,-0.0905,-0.8881,-1.1442
4.32,0.0258,-0.0259,9.8138,-0.6526,0.4181,1.2258
4.34,0.0966,-0.0806,9.7968,0.9826,0.2652,0.6051
4.36,0.0122,0.0298,9.8131,1.1114,-1.2245,-0.5146
4.38,0.0357,-0.0118,9.7317,-1.2521,-0.3414,0.3622
4.4,0.0354,-0.062,9.8504,0.6995,1.0902,1.2347
4.42,-0.0015,-0.034,9.8338,1.307,-1.1328,0.3034
4.44,-0.0166,0.02,9.8538,-0.826,0.35,-0.5984
4.46,-0.0255,-0.012,9.8038,1.3048,-0.798,0.7088
4.48,-0.032,0.0226,9.8137,-1.6087,-0.7368,0.4894
4.5,-0.0618,0.0411,9.8034,-0.7034,1.8352,0.6628
4.52,-0.0295,0.0611,9.8306,-0.6956,-0.1301,0.4088
4.54,0.0214,-0.0049,9.8056,-0.5224,-0.0879,0.3283
4.56,-0.0124,-0.0262,9.8195,-0.2437,0.1886,0.2448
4.58,0.0291,-0.0245,9.8244,0.1087,-0.7021,-0.7674
4.6,0.0184,0.0303,9.8178,-1.2888,-2.1667,1.299
4.62,0.0405,0.0211,9.8765,-1.3682,0.3698,0.5228
4.64,0.0258,-0.0653,9.758,-0.4549,0.4148,-0.6626
4.66,-0.0439,-0.0512,9.8192,-0.0182,-0.708,-0.086
4.68,0.0589,0.0034,9.8655,-0.0078,-0.8466,-0.5838
4.7,0.0284,-0.0075,9.7977,1.0128,0.5276,-0.5454
4.72,0.0329,-0.0426,9.792,-0.0499,0.2438,-0.3859
4.74,-0.0362,0.1164,9.83,0.3502,1.0501,1.0598
4.76,-0.0211,0.0073,9.8451,-0.3688,1.0979,0.3622
4.78,0.0181,-0.047,9.837,2.0838,0.3505,0.9428
4.8,0.0423,0.0039,9.7951,0.3036,0.4052,-1.5442
4.82,-0.0046,0.028,9.8543,-1.2507,-1.1012,-0.4994
4.84,-0.0639,0.0484,9.7923,-0.5211,1.1839,-0.2987
4.86,-0.0657,0.0185,9.8167,0.2558,-0.8164,-0.7442
4.88,0.0064,-0.0019,9.8162,1.6468,-0.8331,-0.5689
4.9,-0.0416,-0.028,9.8271,-0.6086,0.3673,0.6269
4.92,0.0428,0.0477,9.7516,0.2495,0.387,0.3294
4.94,0.0519,-0.0449,9.7871,-0.3318,0.3119,-1.0763
4.96,0.0147,0.0087,9.8259,-1.4718,-1.7012,-0.2876
4.98,-0.0102,0.0187,9.8164,-0.4971,-0.1932,-0.464
5.0,0.009,0.0173,9.8437,0.0553,0.3988,0.0816
5.02,0.0506,-0.044,9.8099,-0.735,-0.0738,-0.2631
5.04,0.06,-0.0001,9.8569,0.7648,0.0499,-1.3745
5.06,0.0191,-0.0194,9.8178,-0.1434,1.2898,-0.3158
5.08,-0.0391,-0.0023,9.8238,-0.1682,-1.2616,0.1664
5.1,0.0525,0.1097,9.79,-0.154,0.7156,0.7719
5.12,0.0484,-0.0083,9.8113,-0.6689,0.4311,0.2284
5.14,-0.0426,0.0106,9.8476,0.4929,0.6499,0.2793
5.16,-0.0248,0.0054,9.8187,1.0639,-0.5458,0.524
5.18,0.0319,-0.0248,9.8009,-0.7646,-0.1885,-1.9428
5.2,0.0082,0.025,9.8188,-0.6828,-0.0218,0.8944
5.22,0.0026,-0.0322,9.8471,0.4372,-0.8078,0.9657
5.24,0.0806,0.0582,9.7979,-0.764,-0.0067,-1.1363
5.26,0.0062,-0.0387,9.8532,0.992,-0.9804,1.0378
5.28,-0.0064,0.0145,9.8364,-0.0641,-0.0597,-0.4749
5.3,0.0318,-0.031,9.7754,0.5506,-0.3896,-1.0494
5.32,-0.0343,-0.0223,9.8078,1.4573,-1.3281,0.0487
5.34,-0.0311,-0.0119,9.7748,-1.016,-0.352,-0.3963
5.36,-0.0041,0.0399,9.8831,-1.5995,-0.8748,0.2235
5.38,0.0436,-0.0532,9.8089,-0.0897,-0.9658,0.1396
5.4,0.0384,0.0361,9.824,1.3619,0.1581,-0.4156
5.42,-0.03,0.0168,9.8224,0.2226,-0.4523,-0.5444
5.44,-0.0168,-0.0029,9.797,-0.5221,0.9034,1.1945
5.46,0.094,0.0314,9.8467,-0.1822,-0.4687,-0.8779
5.48,0.0123,-0.0414,9.8074,-0.0166,0.7653,-0.0498
5.5,0.0559,-0.0238,9.8193,-1.4151,1.6136,0.2169
5.52,0.003,0.0383,9.8282,-0.3903,-0.0412,0.8203
5.54,-0.0953,0.001,9.7998,-1.0493,1.3432,1.3339
5.56,-0.0145,0.0538,9.8093,-0.1058,-0.4421,0.0202
5.58,-0.0074,-0.029,9.7984,0.3687,0.8201,0.7704
5.6,0.0095,0.0599,9.83,1.2706,-1.1066,-0.5959
5.62,-0.0305,-0.0142,9.7902,0.2545,0.0761,0.3342
5.64,-0.0053,0.0037,9.7619,-0.7276,0.4225,0.63
5.66,0.0572,-0.0023,9.8103,-0.2091,-1.4108,-0.1589
5.68,-0.0204,-0.0845,9.871,1.2809,-0.2589,0.5343
5.7,0.0058,-0.0751,9.8312,-1.3719,-0.4072,-0.6075
5.72,-0.0238,0.0195,9.8351,-0.9081,-0.3462,-0.1847
5.74,-0.0322,-0.0275,9.8565,-0.0371,0.2194,0.4544
5.76,0.0231,0.0165,9.8249,-0.1,-0.4216,0.313
5.78,0.0178,-0.0323,9.8364,0.0682,-1.7663,-1.0218
5.8,-0.0082,-0.0231,9.8136,-0.473,-0.87,-0.1287
5.82,0.0019,0.0051,9.7766,0.581,-1.2511,-0.9493
5.84,0.0213,0.0689,9.786,0.2961,2.5795,0.7668
5.86,0.0494,0.1059,9.8447,-0.6935,1.3084,-0.1331
5.88,-0.0409,0.0055,9.7975,-0.611,0.9303,1.3366
5.9,-0.0007,-0.0457,9.7963,-0.0801,-0.9506,1.028
5.92,0.0114,-0.0371,9.8158,-0.0679,-0.4219,-0.0075
5.94,-0.0109,0.0638,9.7796,-0.9116,0.2666,0.1976
5.96,-0.0505,-0.033,9.8223,0.8335,0.489,0.6772
5.98,-0.0464,0.0378,9.8702,-1.7645,0.3377,-0.6839
6.0,0.0177,0.0319,9.8503,-0.3883,0.4907,-2.0099
6.02,-0.0158,-0.0398,9.7734,-2.1823,0.3351,0.5284
6.04,-0.0766,-0.0349,9.8247,1.3476,-1.0323,1.8079
6.06,-0.0295,-0.008,9.8183,0.028,0.13,-1.4156
6.08,0.0064,-0.0623,9.7902,0.495,-1.3655,-0.0576
6.1,-0.0402,0.062,9.8001,-0.6319,1.0393,-0.3917
6.12,0.0437,0.0182,9.7936,-0.082,0.2363,0.8232
6.14,-0.0047,-0.0623,9.7643,0.1175,-0.0988,-0.1889
6.16,0.0263,-0.0318,9.8276,0.8102,-0.1398,-0.3534
6.18,0.0064,0.0109,9.7876,0.042,1.4487,1.4766
6.2,0.04,0.0146,9.7933,-1.5314,0.6353,0.5879
6.22,-0.0254,0.0187,9.8079,0.3975,-0.5223,-2.0562
6.24,0.0146,-0.0046,9.8252,1.8004,0.0005,-1.2661
6.26,-0.0321,-0.0034,9.7922,-0.6133,-1.2043,-1.8436
6.28,0.0697,0.0876,9.8123,0.369,-0.5604,0.4696
6.3,0.0004,0.0381,9.7972,-1.2542,0.1684,0.4599
6.32,0.0253,0.0463,9.8278,-0.0314,-0.218,1.2907
6.34,-0.0581,0.018,9.8108,-0.381,1.4172,1.0598
6.36,-0.0633,-0.0203,9.7966,-1.4319,-0.1284,0.4775
6.38,0.0084,0.0001,9.8537,-0.9498,-0.3977,0.7844
6.4,-0.0086,-0.0251,9.7657,-1.087,0.0569,-0.6611
6.42,0.0015,0.0286,9.7922,-0.9031,0.8489,0.151
6.44,-0.0487,0.0528,9.8021,0.3731,1.116,0.2668
6.46,0.0155,-0.03,9.8468,0.9233,0.4543,0.7595
6.48,0.0186,0.0482,9.7813,-1.2377,0.3925,0.0805
6.5,-0.0073,0.0285,9.8427,0.5571,-0.2643,0.863
6.52,-0.0459,-0.0542,9.7617,-1.5156,0.1187,0.3582
6.54,0.016,0.0372,9.8036,0.705,-0.5619,-0.4067
6.56,0.0025,-0.002,9.8332,-0.2754,-0.2624,0.3679
6.58,0.0463,0.0312,9.7939,0.9005,-1.0764,0.1894
6.6,0.0129,0.0242,9.8134,-0.5024,-0.0626,0.4325
6.62,-0.0258,-0.0106,9.7545,0.8571,3.3047,0.5348
6.64,-0.0806,-0.0424,9.7913,-1.0734,-0.4834,0.7764
6.66,0.049,0.0006,9.7783,-1.5436,-0.068,0.8217
6.68,-0.0101,0.0193,9.7935,0.3259,-0.5946,-0.1751
6.7,0.0174,0.0268,9.8289,-1.3294,0.2515,0.1613
6.72,0.0042,0.028,9.8155,0.7577,-0.8658,0.5707
6.74,-0.0148,-0.0289,9.7955,-0.7456,-1.2717,-0.5046
6.76,0.0229,0.0226,9.8547,0.0572,-0.3167,0.6203
6.78,-0.0522,-0.0446,9.8231,0.0138,0.9118,-0.6396
6.8,-0.0076,-0.026,9.8494,0.45,-0.3239,-0.2044
6.82,0.0123,-0.0565,9.7623,-0.381,-0.5199,-0.9554
6.84,0.0613,-0.017,9.7991,0.7254,-0.539,1.0487
6.86,-0.0483,-0.042,9.8006,-0.1921,-0.2933,0.7152
6.88,-0.006,0.0126,9.8308,-1.5383,-0.0095,1.0475
6.9,-0.0544,-0.037,9.823,-0.3187,-0.0874,0.5418
6.92,-0.0467,0.0347,9.8299,0.5574,0.1992,-0.6636
6.94,-0.032,0.0593,9.7552,1.9763,1.0957,0.9959
6.96,0.0185,-0.0299,9.8074,0.3375,-0.6001,-0.4797
6.98,0.0424,-0.0236,9.7837,-0.8366,0.1788,2.6852
7.0,-0.0243,0.0031,9.816,-0.1808,0.8527,1.5223
7.02,-0.0272,0.0311,9.8105,0.2793,0.4945,-0.3001
7.04,0.0564,-0.0789,9.8237,0.3351,0.6837,-1.5059
7.06,0.0693,0.0361,9.7724,0.1201,-0.0927,-0.0841
7.08,-0.0221,-0.0652,9.8443,0.4647,0.1957,-1.1136
7.1,0.0048,-0.0122,9.7379,0.6775,-0.1464,-0.5
7.12,0.0071,0.0009,9.8265,0.4777,-1.2532,0.621
7.14,-0.0274,-0.0858,9.8106,0.5045,2.5925,1.2493
7.16,-0.0077,0.0421,9.8109,-0.1139,-0.9675,-0.6623
7.18,-0.0613,0.0014,9.803,-0.3225,0.1283,0.6871
7.2,-0.0092,-0.0645,9.7957,-0.0977,-0.3786,0.1511
7.22,-0.0225,0.0135,9.8232,-0.0454,-0.4663,0.8463
7.24,0.0685,0.003,9.795,2.2577,1.0899,-1.0006
7.26,0.0098,0.0447,9.7924,-0.8121,1.0822,0.3305
7.28,0.0549,0.05,9.9132,0.4822,-0.107,0.1668
7.3,-0.0384,-0.0308,9.8074,-0.4843,-0.3658,0.3075
7.32,-0.029,0.0191,9.8144,-0.1785,-0.0969,0.4372
7.34,-0.0168,0.0209,9.7822,-0.2016,0.2014,-0.8303
7.36,0.074,-0.0572,9.7847,0.1912,0.4192,-0.8054
7.38,-0.0379,-0.0041,9.7818,-1.1131,-0.0842,0.2854
7.4,0.057,-0.0053,9.8252,-1.4408,-0.3166,-0.8335
7.42,-0.0287,-0.0026,9.831,-0.1614,-0.0785,-0.1939
7.44,0.0604,0.0325,9.8216,0.5402,0.6785,0.1507
7.46,0.0509,0.019,9.7681,-0.1884,-0.1781,0.1401
7.48,-0.0015,-0.0167,9.8093,0.7984,-0.0803,-0.6617
7.5,0.0169,-0.1532,9.7464,-1.3411,0.6667,-0.4566
7.52,-0.0439,-0.0128,9.8007,0.9154,-1.7372,0.7409
7.54,-0.0154,0.0191,9.8133,-0.6424,-0.4444,0.9018
7.56,0.0022,-0.0473,9.8245,-0.8803,-0.3581,-0.5165
7.58,-0.0862,-0.035,9.822,0.1964,0.1844,0.1461
7.6,-0.0164,-0.0416,9.8314,0.8875,-0.1321,1.194
7.62,-0.0275,-0.0717,9.8536,-0.6925,-0.3273,-1.0389
7.64,-0.0511,0.0344,9.8366,-0.9312,-0.1768,2.531
7.66,-0.0208,0.0061,9.8052,0.2119,0.4201,1.0598
7.68,-0.0189,-0.0601,9.8319,0.5754,0.6019,0.7956
7.7,0.0259,-0.0163,9.8442,-0.9355,-0.0223,0.4627
7.72,0.0214,0.0382,9.8202,-1.1407,-1.5577,1.6581
7.74,0.0592,0.0143,9.8491,-0.2013,-1.3498,-0.7025
7.76,0.0256,-0.0055,9.8466,0.4678,-1.0162,-0.2777
7.78,-0.0301,-0.0506,9.8101,-1.3419,1.4999,-0.6959
7.8,-0.0366,-0.1105,9.7864,-1.084,0.8573,0.3741
7.82,0.0182,-0.0564,9.8362,0.4184,0.3691,0.0704
7.84,-0.0025,-0.0534,9.8483,-0.8398,-0.9049,0.6205
7.86,-0.0079,0.0437,9.8349,1.0542,0.67,0.1877
7.88,0.0426,-0.0015,9.8135,0.0892,0.1758,-0.8145
7.9,0.0079,-0.0169,9.7792,-0.2674,0.0642,1.7044
7.92,-0.0164,-0.0234,9.8225,-1.5336,-0.4726,-1.3387
7.94,0.008,-0.0018,9.8638,1.4343,-0.3358,0.8191
7.96,0.0429,0.0139,9.8357,0.7847,0.1526,-0.5014
7.98,-0.0497,-0.0057,9.8508,-0.3965,-1.1621,-0.5166
8.0,-0.0486,0.0173,9.7979,-0.2326,-0.6051,0.0355
8.02,0.0574,-0.0651,9.7761,-1.2913,-1.3022,-0.2036
8.04,0.0408,-0.0505,9.8185,-0.0879,-0.4591,-0.312
8.06,0.0873,0.0122,9.8816,-0.41,-0.0681,0.489
8.08,-0.0209,0.0023,9.8589,0.7339,-0.1371,0.5775
8.1,-0.0351,0.0263,9.7873,0.0942,0.7429,-0.0475
8.12,0.0564,-0.0395,9.7857,-1.4091,0.0106,0.2593
8.14,0.0407,0.0417,9.8236,-0.2296,0.1999,-0.8291
8.16,0.0452,-0.0528,9.7745,0.832,1.6103,-0.5186
8.18,-0.0295,-0.0232,9.8679,1.2883,0.7932,-0.0934
8.2,-0.0557,0.0331,9.7698,-1.3482,0.1703,1.3098
8.22,0.0025,0.0046,9.8282,2.59,0.9826,0.0981
8.24,-0.0577,-0.0389,9.78,-0.7066,0.5031,-1.6972
8.26,-0.0329,0.003,9.8091,-0.416,-1.7073,-0.3059
8.28,-0.0423,-0.0548,9.7488,-0.1012,0.5323,-1.1054
8.3,0.0201,0.0429,9.8075,-0.4918,1.2504,1.0517
8.32,0.0413,0.0418,9.7613,0.2873,0.7255,0.3971
8.34,0.048,-0.0042,9.8135,-1.0063,-1.1898,-0.9489
8.36,0.0069,0.0457,9.8125,-0.5027,0.2688,-0.704
8.38,0.0289,-0.0027,9.8391,-0.2863,0.0017,-1.7516
8.4,0.0619,0.0024,9.8343,-0.508,0.679,-1.0008
8.42,0.0011,-0.0116,9.8049,0.8214,0.2333,-0.243
8.44,0.0644,0.0333,9.848,-0.178,-0.1688,1.1006
8.46,0.0031,-0.0508,9.8352,-0.3702,0.3455,0.9842
8.48,0.0391,-0.1003,9.8218,-0.8715,0.2531,-0.1014
8.5,0.0655,-0.041,9.7831,-0.3976,0.5452,0.2917
8.52,0.003,-0.0078,9.7893,-0.9116,-0.383,-0.3789
8.54,-0.0409,-0.0274,9.8054,-1.7976,0.0632,0.6066
8.56,0.001,0.0199,9.7887,-0.9143,-0.4911,-0.6564
8.58,-0.0224,0.0299,9.8076,0.8556,-0.3136,0.6818
8.6,-0.0185,-0.0614,9.85,-0.8809,0.7468,-0.8638
8.62,0.0093,0.0259,9.8461,-0.7,-1.1126,0.1258
8.64,-0.0183,0.0126,9.8005,0.6597,-0.3791,-0.4715
8.66,0.0564,0.0192,9.8386,-0.9724,0.3091,-0.5956
8.68,0.0002,-0.0286,9.8298,1.2062,-1.141,-0.2462
8.7,0.0109,0.0634,9.8113,0.019,-1.167,-0.9987
8.72,-0.0433,-0.057,9.7761,-0.559,0.4304,-0.0905
8.74,-0.0391,-0.0462,9.779,-0.6838,-0.8069,-0.8944
8.76,-0.054,-0.0077,9.8113,-0.2329,-0.5294,-0.916
8.78,0.0007,0.021,9.8215,-0.0603,1.2536,0.9529
8.8,-0.0112,-0.0605,9.7653,0.2809,0.6683,-0.5943
8.82,0.0294,0.0024,9.7716,-1.4909,0.2147,-0.927
8.84,0.0711,0.0353,9.7689,1.2663,0.2662,-0.5323
8.86,0.0303,0.006,9.7964,0.6025,-0.1134,0.1332
8.88,0.0391,-0.0635,9.8134,0.8506,-0.1317,0.3461
8.9,0.0423,0.009,9.8058,-0.2029,-1.2671,0.6156
8.92,0.0249,-0.0755,9.7935,1.4841,1.3748,1.3436
8.94,0.035,-0.0231,9.7816,-0.5145,-0.5998,-0.2168
8.96,0.1056,-0.0846,9.7807,0.086,0.7863,0.7034
8.98,0.0412,0.0558,9.8049,0.7601,-0.8476,-0.1774
9.0,-0.0488,-0.0297,9.8383,0.6131,1.1342,0.5537
9.02,-0.003,-0.0335,9.8224,-0.1316,-1.0691,0.0883
9.04,-0.0167,-0.0143,9.8376,0.4049,-0.1417,1.2334
9.06,-0.0353,0.0302,9.8177,0.1028,-0.562,-0.4964
9.08,0.0197,-0.0155,9.8384,-0.8615,-0.6158,-0.1468
9.1,0.005,0.0703,9.7939,0.1835,-0.4018,0.0264
9.12,-0.0244,0.0104,9.8228,1.6214,-0.3862,0.4202
9.14,0.0632,0.0128,9.7981,0.3347,-0.088,0.051
9.16,0.0269,-0.0173,9.7833,0.3305,1.0037,-0.6133
9.18,0.0218,-0.0149,9.7916,1.2039,0.3182,0.3983
9.2,0.0589,-0.0104,9.8415,0.5068,0.1398,-0.6447
9.22,0.0071,-0.0525,9.8001,0.4859,0.912,1.0597
9.24,0.0323,-0.0021,9.7918,-0.2897,-0.4944,-0.3693
9.26,0.009,-0.0369,9.8313,0.1061,-1.482,0.7892
9.28,-0.0145,0.0095,9.8207,-0.2971,0.533,-0.1135
9.3,0.0214,-0.0109,9.8447,0.2431,-0.7921,-0.9037
9.32,-0.0411,0.0348,9.8538,0.3253,-0.8317,-0.3284
9.34,-0.0201,-0.0152,9.8181,-1.0294,-0.2168,-0.1237
9.36,0.0255,-0.0296,9.8018,-1.434,0.4436,-0.8143
9.38,0.013,0.0785,9.8148,-0.5535,2.0983,-0.9205
9.4,-0.0127,-0.0154,9.8358,1.2075,-0.2659,-0.5306
9.42,0.0362,0.0238,9.8033,-0.5482,0.2663,0.1612
9.44,0.0332,-0.0399,9.8173,-0.2348,0.6782,0.1943
9.46,-0.0024,-0.045,9.8242,-0.6244,0.1147,-0.1986
9.48,0.0094,-0.0441,9.8186,-0.2457,-1.1655,0.6087
9.5,0.013,0.0256,9.7949,0.6153,0.0982,0.3834
9.52,-0.0048,0.0202,9.819,-0.1272,0.6157,0.8072
9.54,-0.0081,-0.0528,9.788,0.6749,-1.007,-0.0902
9.56,0.0094,-0.0054,9.8394,0.3981,1.4703,0.1478
9.58,0.0102,0.0349,9.769,0.7845,0.2453,1.5167
9.6,-0.0672,-0.0178,9.8593,-0.2805,0.2721,-0.9623
9.62,0.0126,-0.0027,9.8598,-0.3226,-0.8804,-0.3452
9.64,-0.0343,-0.0306,9.8422,1.0972,-0.2753,0.6984
9.66,0.0347,0.0192,9.82,0.4212,-0.6254,0.2369
9.68,-0.0089,0.044,9.8127,-0.335,1.0022,-0.6629
9.7,0.0107,0.0117,9.8023,-0.4085,-0.9478,0.0401
9.72,-0.0327,0.0544,9.8031,-0.3167,0.6619,-0.9786
9.74,0.0169,0.0224,9.8342,-2.1558,-0.1819,0.7203
9.76,0.0025,-0.0791,9.8079,1.6747,-1.1349,-0.7538
9.78,-0.0042,-0.0922,9.8327,0.2198,-1.6359,-0.4351
9.8,0.0548,-0.0243,9.7995,-0.2195,0.37,-0.4276
9.82,-0.0252,0.0013,9.809,-0.3372,1.4036,-0.5879
9.84,0.0181,0.0493,9.8214,0.1722,0.1628,-1.3047
9.86,-0.0387,-0.0071,9.7761,-1.0902,1.2717,-0.2042
9.88,0.1156,-0.0104,9.7552,-0.6347,0.8471,-1.1426
9.9,-0.0123,-0.0407,9.8038,-1.4639,-0.2232,0.6998
9.92,0.0542,-0.0099,9.7876,-2.246,0.4691,-0.1274
9.94,-0.0333,0.0269,9.8396,-1.1386,-0.6861,0.913
9.96,0.005,-0.0021,9.8086,0.242,0.3172,-1.2259
9.98,-0.0182,0.0881,9.7748,0.8763,-0.2723,1.9426
10.0,0.0106,0.0743,9.7608,-0.4208,0.3314,0.782
10.02,-0.0044,-0.0714,9.7871,-0.1992,-0.035,-0.1184
10.04,0.0061,0.0727,9.8198,-0.1543,0.5638,0.5733
10.06,0.0612,-0.0192,9.7969,-0.1024,-0.2402,-0.8684
10.08,-0.0122,0.0482,9.7763,1.4454,0.1103,-0.9498
10.1,0.0428,0.0445,9.8252,-1.4424,0.821,0.328
10.12,-0.0269,-0.0108,9.8379,-0.119,-0.0379,0.4308
10.14,-0.0671,-0.0146,9.8238,-0.7501,0.1811,0.1541
10.16,-0.0343,0.0098,9.7591,0.0879,0.3231,-0.6845
10.18,-0.0279,-0.0317,9.8117,-0.3003,-0.0926,-0.2284
10.2,0.0056,0.0353,9.8138,0.4629,1.0357,-0.1135
10.22,0.0244,0.0307,9.797,-0.7423,-0.5878,-0.3903
10.24,0.0186,-0.0158,9.8076,1.877,-0.8866,0.3481
10.26,0.0074,0.0196,9.8539,1.5554,-0.4787,0.1016
10.28,-0.0028,-0.0118,9.7761,-1.6598,0.4948,0.2427
10.3,0.0165,0.0398,9.8072,-1.3231,0.8336,1.2008
10.32,0.0022,0.0409,9.821,1.0087,0.0409,0.0006
10.34,0.0066,0.0338,9.8089,-0.4403,-0.174,0.6504
10.36,0.0001,0.0358,9.8958,-0.2684,-0.9284,0.6435
10.38,-0.0486,0.042,9.8741,1.0065,1.7894,0.2218
10.4,0.0826,0.0015,9.7591,0.4786,-1.0354,-1.2645
10.42,0.0795,0.0572,9.8144,0.4572,0.5314,-0.3337
10.44,-0.0379,0.0072,9.8287,0.4659,-2.1124,-0.3186
10.46,0.0013,-0.0664,9.7647,-0.2603,0.1798,-0.8433
10.48,0.0554,0.0124,9.8072,0.5932,0.5359,-0.2792
10.5,-0.004,-0.0378,9.8095,0.1179,-1.1741,-1.3521
10.52,0.0159,0.0238,9.8149,1.1822,1.2781,0.4014
10.54,-0.0734,-0.0551,9.8353,1.1278,-0.3498,-1.644
10.56,-0.055,-0.0098,9.8324,0.7503,0.2683,-0.3255
10.58,0.0365,0.0092,9.8377,0.1131,-0.2765,0.2148
10.6,-0.0576,0.0236,9.7822,0.8131,0.4274,-0.6522
10.62,-0.0241,0.014,9.8291,0.6867,-0.9704,-0.1684
10.64,0.0497,-0.0134,9.8002,0.2454,0.0092,0.148
10.66,0.0082,0.0128,9.8171,2.0576,0.5525,-0.6563
10.68,-0.0033,-0.0298,9.8065,0.5567,-1.4204,0.6454
10.7,-0.0003,-0.0306,9.8287,0.0164,0.1121,-0.1048
10.72,0.0001,0.0103,9.8429,-0.1087,-0.8105,0.7427
10.74,0.0792,0.0225,9.7635,0.2731,0.4198,1.4582
10.76,-0.0353,-0.0156,9.7637,0.1933,-1.2132,-0.4799
10.78,-0.0054,0.0779,9.8265,0.2306,-0.1643,-0.4006
10.8,0.0818,-0.0836,9.8393,0.6502,0.3501,-1.9851
10.82,-0.0101,-0.0358,9.8201,0.3673,-0.2327,1.3738
10.84,-0.0423,0.0338,9.8546,-0.4055,-1.1693,0.4747
10.86,-0.0143,0.0328,9.8627,0.5801,0.2924,-0.276
10.88,0.0645,0.0014,9.8135,0.8425,-0.489,-1.2178
10.9,0.0218,0.0132,9.8729,0.2408,-0.1581,-0.564
10.92,-0.0292,0.0368,9.7693,2.4117,-1.1182,0.3551
10.94,-0.0398,-0.0196,9.8554,-0.0072,-0.3254,-0.8683
10.96,0.0016,-0.0434,9.8212,-0.1275,0.2882,0.6437
10.98,-0.0556,0.0393,9.8319,-0.7567,-0.9245,0.2939
11.0,0.0453,-0.0304,9.8371,-0.2018,-0.4737,0.0763
11.02,-0.0357,0.0467,9.8058,0.0065,-0.7007,-0.0333
11.04,0.0227,-0.0134,9.8238,-1.2766,-1.8637,-1.2174
11.06,0.0174,-0.0621,9.7919,-0.6941,0.2539,-1.3543
11.08,-0.0306,-0.0625,9.7775,0.0819,0.0418,0.7877
11.1,0.0326,-0.0017,9.7667,-1.1651,0.1316,-0.9853
11.12,-0.059,0.0287,9.7832,0.5014,-0.2945,0.4784
11.14,-0.0213,0.0309,9.8129,-0.5361,0.1099,0.1191
11.16,-0.0945,0.0302,9.8205,0.7251,0.6033,1.424
11.18,0.0664,-0.0413,9.7776,-0.6031,1.4776,-0.9319
11.2,-0.0568,0.0665,9.8045,-0.1771,-0.6741,0.8169
11.22,-0.0049,-0.0105,9.806,-0.5285,-0.7889,0.0643
11.24,0.0403,-0.0181,9.8131,-0.1745,0.9318,1.0613
11.26,0.0665,-0.0297,9.7817,-0.6824,0.5177,1.6168
11.28,0.0158,-0.0612,9.7685,0.7931,0.0853,0.1755
11.3,-0.0579,-0.013,9.8601,-0.9771,-0.7401,0.8245
11.32,-0.016,-0.0061,9.813,-0.4844,-0.4392,-0.3823
11.34,0.0252,-0.0733,9.8212,-0.7882,-0.6114,0.5269
11.36,-0.0079,0.0375,9.7877,-0.4097,0.3535,-0.9403
11.38,-0.0113,-0.0635,9.8353,-0.356,0.2965,-0.9085
11.4,0.0213,-0.0584,9.806,1.3716,0.9327,0.7974
11.42,-0.0067,0.0372,9.7666,0.0263,0.4039,-0.4636
11.44,0.0243,0.0144,9.805,0.182,-0.22,-1.1332
11.46,0.0054,0.0789,9.8351,-0.1877,0.6803,-0.4855
11.48,-0.0299,0.0325,9.8307,-0.636,-0.6387,-1.4399
11.5,-0.0251,0.0327,9.7874,0.454,-0.7749,1.3554
11.52,0.0211,-0.0548,9.7888,1.0287,-0.0729,-0.0042
11.54,-0.0324,0.0663,9.7765,-0.3155,0.7434,0.0447
11.56,-0.0557,-0.0345,9.7892,-0.3231,-0.6555,-0.462
11.58,0.0547,0.0232,9.8044,0.6126,0.0584,0.0621
11.6,-0.0428,0.0282,9.81,1.2602,-0.0978,-1.0672
11.62,-0.086,-0.005,9.8157,-0.6148,1.1332,-0.8155
11.64,-0.0018,0.0496,9.8834,0.7356,-0.6879,-1.2458
11.66,-0.0049,0.1029,9.8222,-0.5392,-0.8039,-1.6709
11.68,-0.0103,0.0358,9.7955,-0.2454,-0.7038,-0.2162
11.7,0.0001,-0.0632,9.7889,-1.0401,0.6776,-0.5215
11.72,0.057,-0.0148,9.8175,-0.5286,0.7614,-0.2106
11.74,0.0347,-0.0485,9.7641,-0.4064,0.1099,-0.305
11.76,0.0562,-0.0234,9.7737,0.3903,1.4127,0.1717
11.78,-0.0303,-0.0043,9.8709,-0.2116,-0.3029,0.8877
11.8,-0.0121,0.0593,9.7704,1.0735,0.6777,-0.3081
11.82,-0.0438,0.033,9.8311,1.062,0.035,-1.2259
11.84,0.0712,-0.0493,9.7675,1.6626,0.0924,0.9297
11.86,-0.075,-0.0004,9.7895,1.0845,0.7428,-0.3093
11.88,0.0059,0.0099,9.7577,-0.1263,0.8947,-0.3653
11.9,0.0471,-0.022,9.7934,0.7937,0.201,0.4961
11.92,0.0004,-0.0364,9.7995,-0.6412,1.0604,-1.1254
11.94,-0.0283,0.0337,9.7805,0.7032,0.9485,0.5298
11.96,-0.0005,-0.0445,9.7826,0.1788,-0.6363,0.1298
11.98,-0.0292,-0.0268,9.8124,-0.0187,-0.0686,0.1947
12.0,0.0366,0.0223,9.8358,0.1375,0.0079,-0.443
12.02,-0.0089,0.0084,9.8085,-0.5432,-0.4611,0.2877
12.04,0.0386,0.0024,9.7925,1.4684,0.0914,-0.857
12.06,0.0125,-0.0027,9.8177,0.1226,-0.1864,0.3437
12.08,0.0181,-0.0166,9.8038,-0.8395,0.749,0.5922
12.1,0.0034,-0.022,9.8522,-0.1615,-1.2295,-1.7755
12.12,0.0389,-0.0461,9.791,-0.8797,-0.6844,0.3223
12.14,-0.0193,-0.0679,9.8343,0.6975,-1.164,-0.2674
12.16,-0.0022,-0.0101,9.7996,0.5375,0.7704,-0.9875
12.18,0.0236,-0.0563,9.7798,0.3089,-0.2888,-0.1154
12.2,0.056,0.0084,9.8179,0.6507,-1.1653,-0.7701
12.22,-0.0238,0.0228,9.8217,0.1657,-1.6616,0.1164
12.24,0.0296,-0.0425,9.7899,-0.1525,1.2921,0.4729
12.26,0.0361,-0.0115,9.8452,1.0799,-0.9836,-0.5212
12.28,0.0305,0.0378,9.8288,0.8309,-0.3596,0.1711
12.3,-0.0858,-0.0173,9.8223,1.3535,-1.0642,-0.4871
12.32,-0.0287,-0.0148,9.8086,0.0335,0.9123,0.0276
12.34,-0.0111,-0.0157,9.8127,-1.6067,-0.414,0.7778
12.36,-0.0105,0.001,9.8081,0.3799,0.092,0.0081
12.38,-0.0198,-0.0025,9.7956,0.2986,-0.1789,-1.0336
12.4,-0.0448,0.023,9.7942,0.0489,0.1507,0.5839
12.42,0.0584,0.0577,9.7781,0.1076,-0.9681,-0.2882
12.44,-0.0622,-0.0027,9.8256,-0.044,0.2542,1.0718
12.46,0.0119,0.0043,9.7994,0.3717,-0.4701,-0.0348
12.48,-0.0236,0.0826,9.8077,-1.1398,0.2986,-0.7785
12.5,-0.0445,0.0115,9.7963,0.2463,-0.8329,0.4697
12.52,-0.0112,-0.0655,9.7636,0.0109,0.382,-0.9189
12.54,-0.1057,0.0046,9.7969,0.0889,0.5517,0.2726
12.56,0.0024,0.0613,9.8117,0.0676,0.9734,0.11
12.58,0.0016,-0.0477,9.8229,-0.434,-0.2493,1.1853
12.6,0.0086,-0.0521,9.822,-0.2151,0.2329,0.5441
12.62,0.1074,-0.0327,9.7905,0.8405,1.7441,0.0565
12.64,0.0414,-0.036,9.806,0.8447,-0.8191,0.0151
12.66,0.0507,0.0048,9.8635,0.5202,1.8679,0.2983
12.68,0.0203,0.0435,9.832,-0.9028,1.8544,0.4361
12.7,-0.0516,-0.0469,9.8452,1.1824,-0.8447,-0.8571
12.72,0.0462,-0.0126,9.8217,0.2454,-0.4569,-0.5128
12.74,0.0808,-0.0089,9.8624,0.4116,-0.2383,-1.3957
12.76,-0.0164,0.0054,9.815,-0.3715,-0.8704,-0.9612
12.78,-0.0144,0.0058,9.8476,-0.0005,-0.4518,-0.1658
12.8,-0.0089,-0.0245,9.8496,0.6341,0.4427,0.3146
12.82,-0.0038,-0.0559,9.8631,0.7098,0.683,-0.1682
