time_s,Ax,Ay,Az,Gx,Gy,Gz
0.0,0.0156,0.0138,9.7837,0.9788,-0.2947,-0.3658
0.02,-0.0211,0.0018,9.8615,0.019,-0.2129,-0.1889
0.04,0.0341,-0.0271,9.8161,0.1465,0.7985,-0.0977
0.06,0.0048,0.013,9.8119,0.1025,-0.331,-0.1914
0.08,0.0326,0.0106,9.8618,0.2698,-0.2796,-0.5155
0.1,-0.0162,0.0141,9.792,0.8281,-0.5006,-0.136
0.12,0.0125,0.0219,9.8388,0.1375,-0.2382,0.3709
0.14,0.0419,0.0296,9.7741,-0.5251,0.2759,-0.0738
0.16,0.0179,0.0377,9.8055,-0.2512,-0.0842,-0.094
0.18,-0.0329,0.0633,9.8402,-0.4588,0.7028,-0.2361
0.2,0.0254,0.0265,9.819,-0.4673,0.106,0.2911
0.22,-0.0332,-0.0178,9.8142,-0.0019,-0.1359,-0.3288
0.24,-0.0216,-0.0053,9.8278,-0.8615,-0.6852,0.308
0.26,-0.012,0.0378,9.8236,0.318,-0.2776,0.3979
0.28,-0.0163,0.0419,9.8222,0.0102,-0.3304,-0.5506
0.3,-0.0041,-0.0185,9.8274,-0.5425,-0.1239,-0.2649
0.32,0.0413,-0.0509,9.7823,0.1806,0.2932,0.1257
0.34,0.0357,0.0218,9.8052,-0.1022,-0.7028,-0.2827
0.36,0.038,-0.0576,9.807,0.4124,-0.7579,0.003
0.38,-0.0225,-0.064,9.7449,0.136,-0.6939,0.1507
0.4,-0.0325,-0.0569,9.8231,-0.3958,0.1612,0.0297
0.42,-0.008,0.0455,9.7999,0.1057,0.7588,0.1238
0.44,0.0403,0.0195,9.7641,0.0621,0.2457,-0.0712
0.46,-0.001,-0.0675,9.8094,-0.0444,-0.4995,0.3402
0.48,0.0025,-0.0318,9.8329,0.3212,-0.1487,-0.3992
0.5,0.0531,0.0347,9.831,0.1318,0.0868,0.265
0.52,0.0002,-0.0127,9.8377,-0.1092,-0.3196,1.003
0.54,0.0195,0.0106,9.8002,0.0228,-1.028,-0.4359
0.56,0.0198,-0.0377,9.7884,1.163,0.8032,0.565
0.58,0.0198,0.0392,9.8129,-0.2785,-0.6478,-0.3657
0.6,-0.0304,-0.0058,9.835,-0.6319,-0.0729,-0.2509
0.62,0.0154,0.0158,9.7807,-0.7578,0.0401,-0.5931
0.64,0.0058,0.0139,9.7982,0.3008,-0.3645,0.2676
0.66,0.0332,-0.026,9.8113,0.5772,0.1407,-0.5069
0.68,0.0275,-0.0335,9.8057,0.6963,0.0975,-0.3046
0.7,0.0349,-0.0155,9.8077,-1.282,-1.0517,0.1987
0.72,0.0258,0.0239,9.8321,0.441,-0.8937,0.2657
0.74,-0.015,-0.0421,9.7938,0.253,-1.8252,-1.0898
0.76,0.0488,0.0449,9.7723,0.0689,-0.039,-0.2671
0.78,0.0397,0.0038,9.8595,0.4514,0.2867,0.1938
0.8,-0.026,0.0142,9.8127,0.4898,-0.7621,-0.3735
0.82,0.0446,-0.0381,9.8518,0.7682,0.2446,-0.0398
0.84,-0.0008,0.0027,9.7835,-0.3178,0.0341,0.3671
0.86,0.0312,0.0039,9.8192,-0.9303,0.3115,0.3622
0.88,-0.0098,0.0023,9.8113,0.2698,0.4234,1.0809
0.9,0.0704,0.0112,9.793,-0.745,0.3598,0.0016
0.92,0.0568,-0.0308,9.8083,0.2348,0.3978,-0.0397
0.94,0.0246,-0.0009,9.8035,0.0712,-0.6503,0.4948
0.96,0.0061,-0.013,9.8314,-0.2841,1.1909,0.1204
0.98,0.0645,-0.0143,9.8626,0.8505,0.2447,0.0235
1.0,0.0375,-0.022,9.8077,-0.3295,-0.1332,-0.0955
1.02,0.0026,0.0043,9.8297,-0.2494,-0.1896,-0.31
1.04,-0.0186,-0.0443,9.8067,-0.5066,0.6245,-0.3209
1.06,0.0377,-0.0105,9.8222,0.6555,-0.7864,-0.5818
1.08,0.0227,0.0128,9.8312,-0.1482,0.1692,0.4493
1.1,0.0685,0.0449,9.8192,-0.2186,0.9548,-0.3909
1.12,0.0233,-0.02,9.8265,0.8316,-0.6891,-0.1625
1.14,0.0869,0.0084,9.8266,0.0844,0.0153,-0.0542
1.16,0.0001,0.0139,9.7811,0.331,0.6426,-0.1093
1.18,0.0361,0.0363,9.8069,0.717,-0.3209,-0.5634
1.2,-0.0182,-0.011,9.8132,-0.4932,1.1375,0.313
1.22,0.0508,0.0279,9.8242,-0.2749,0.2147,0.363
1.24,0.0458,0.0369,9.8002,0.1744,0.2671,0.1634
1.26,-0.0064,0.0211,9.8052,-0.2166,-0.2598,-0.9844
1.28,0.0274,0.0283,9.7704,0.0094,0.3618,0.1059
1.3,0.0158,0.0043,9.7867,0.1903,-0.5564,-0.1777
1.32,0.0508,0.0261,9.8272,0.0478,-0.2331,0.0449
1.34,-0.0366,-0.005,9.8238,0.7076,-0.011,-0.7172
1.36,0.0688,-0.0315,9.8066,0.9441,-0.0392,0.7891
1.38,0.0307,-0.0054,9.7829,-0.4687,-0.8212,-0.431
1.4,0.0665,0.0099,9.7998,-0.2724,-0.0317,-0.0623
1.42,0.0504,-0.0144,9.8335,0.2767,0.1201,0.3366
1.44,-0.0572,0.0122,9.822,-0.7443,0.3386,0.6162
1.46,0.0102,-0.0072,9.8238,-0.3486,0.4273,-0.0177
1.48,0.0033,-0.0032,9.8193,0.1085,-0.6674,-0.803
1.5,0.0162,-0.022,9.8104,0.7216,-0.2403,-0.4893
1.52,0.0274,-0.038,9.8406,-0.1509,0.367,0.4346
1.54,-0.001,-0.0015,9.7889,-0.3344,-1.3598,-0.0539
1.56,-0.0029,-0.0074,9.8111,0.6389,0.027,0.2046
1.58,0.0141,0.033,9.8266,0.0836,-0.1205,-0.222
1.6,0.0242,0.0398,9.8205,0.8594,0.6553,0.1537
1.62,0.0094,-0.0023,9.7768,-0.1352,0.56,0.3855
1.64,0.006,-0.0355,9.7871,-1.1169,0.7456,-0.0002
1.66,-0.0539,-0.0172,9.8105,-0.9284,-0.8183,0.5724
1.68,0.0143,-0.0085,9.786,0.0648,-0.0558,0.2498
1.7,-0.0047,0.0135,9.8101,-0.1098,0.4684,0.6588
1.72,0.0266,0.0351,9.7871,-0.7627,0.7049,-0.1219
1.74,0.0222,0.0281,9.7928,0.5966,0.2633,0.3843
1.76,-0.0004,-0.0538,9.8168,-0.2056,0.4987,-0.419
1.78,-0.0266,0.0145,9.8291,0.1564,0.4639,-0.6265
1.8,-0.0193,-0.002,9.8558,-0.4847,-0.3145,0.1898
1.82,0.011,-0.0221,9.7515,-0.0602,-0.0737,0.2648
1.84,0.014,0.0087,9.8118,-0.2887,0.6928,0.3409
1.86,-0.0367,-0.03,9.8347,0.2334,0.4064,0.1207
1.88,-0.0236,0.0244,9.851,-0.8073,0.9718,-0.252
1.9,-0.0076,0.0385,9.7901,0.0195,-0.27,0.1091
1.92,-0.0174,-0.0403,9.812,-0.2714,-0.0057,0.4753
1.94,-0.0454,-0.0083,9.8286,0.3903,-0.006,-0.1355
1.96,-0.0213,-0.0181,9.8249,0.8756,0.3375,0.5386
1.98,0.0186,-0.0405,9.8145,0.0967,0.0006,0.1292
2.0,-0.0598,-0.0093,9.7632,0.8663,0.2355,0.3022
2.02,0.0367,-0.0071,9.7699,-0.4765,0.1332,-0.2154
2.04,-0.0332,-0.0045,9.8081,-1.4967,-0.3903,0.3972
2.06,0.0099,0.0236,9.7975,0.4947,0.9304,0.1215
2.08,-0.0064,-0.0302,9.7811,0.5261,-0.3015,-0.3017
2.1,-0.0733,0.0296,9.8044,0.63,0.8149,0.1275
2.12,-0.018,0.0035,9.8205,0.8497,-0.3833,-0.3865
2.14,-0.0492,0.0416,9.8116,-0.5009,0.239,-0.5617
2.16,-0.015,-0.0161,9.8083,0.6435,-0.3118,0.1601
2.18,-0.0112,0.033,9.7719,-0.0702,0.8733,0.1373
2.2,-0.0014,-0.0183,9.8607,-0.4771,-0.4744,0.2564
2.22,0.0013,-0.007,9.8344,-0.6357,0.216,-0.607
2.24,0.0011,-0.0041,9.8163,0.4761,0.4606,0.3147
2.26,0.0303,0.0098,9.8411,-0.3638,-0.2516,0.3674
2.28,-0.0046,-0.0445,9.8357,-0.2695,-0.7809,0.0178
2.3,-0.063,-0.0159,9.8259,0.1515,-0.1077,0.4033
2.32,-0.0126,0.0139,9.8163,-1.1117,-0.1915,0.0207
2.34,-0.013,0.0167,9.7644,-0.2041,-0.2609,-0.6202
2.36,-0.0193,0.0201,9.8308,0.4648,-0.4891,-0.7226
2.38,0.0149,-0.0109,9.8354,0.2443,-0.5611,-0.1313
2.4,-0.0335,-0.0355,9.8414,0.5973,0.6275,0.242
2.42,-0.0164,-0.0156,9.8207,-0.1847,-0.0226,0.028
2.44,-0.0805,-0.0109,9.7889,-0.2889,0.707,0.435
2.46,0.0097,-0.0814,9.8316,0.2279,-0.379,-0.6309
2.48,-0.0349,-0.0241,9.8082,0.6599,0.1457,-0.1015
2.5,-0.0183,-0.062,9.8239,-0.1476,-0.3362,-0.0489
2.52,0.0494,0.0076,9.8069,0.4883,0.1455,0.1893
2.54,-0.0562,-0.0425,9.8026,-0.2429,-0.3199,-0.1587
2.56,-0.0327,-0.042,9.8183,0.7757,0.7271,0.088
2.58,0.0327,-0.0072,9.7778,-0.0379,0.1759,0.1902
2.6,-0.055,-0.0619,9.8103,0.7602,0.1703,0.0929
2.62,-0.0141,-0.0167,9.8628,-0.103,-0.0397,0.1439
2.64,-0.0608,0.0385,9.8357,-0.1228,-0.5415,0.3924
2.66,-0.0722,0.0068,9.7999,0.3187,0.0623,0.5721
2.68,-0.0017,-0.0069,9.8567,-0.6949,0.5553,0.1626
2.7,-0.0109,-0.0449,9.7891,-0.3472,0.0165,0.0307
2.72,-0.0549,0.0414,9.7801,0.5976,0.2765,-0.1485
2.74,-0.0223,-0.0008,9.8514,-0.8634,0.3199,0.0305
2.76,0.0213,0.0251,9.818,-0.0552,-0.8577,-0.3094
2.78,-0.0617,-0.0523,9.7984,0.1893,-0.4347,-0.2251
2.8,-0.0414,-0.0445,9.8062,-0.2393,-0.0385,-0.2937
2.82,-0.0137,0.0277,9.7593,0.0325,-0.5097,0.0609
2.84,-0.0031,0.0293,9.823,-1.5849,-0.6497,-0.244
2.86,0.004,0.0086,9.773,-0.5542,-0.6112,-0.968
2.88,-0.0399,0.0402,9.8482,-0.3149,-0.1832,0.2324
2.9,-0.0256,0.0103,9.7745,0.7174,0.9053,0.013
2.92,0.0085,-0.0059,9.7945,0.2955,0.057,0.1657
2.94,-0.0564,-0.016,9.8112,0.6215,-0.5188,0.57
2.96,0.0218,0.0253,9.7903,-0.3363,0.2068,0.0497
2.98,0.0062,-0.0365,9.7959,-0.1041,-0.5051,-0.1383
3.0,-0.0155,-0.0097,9.76,1.4995,0.304,0.4585
3.02,-0.0547,-0.0044,9.8072,-0.854,-0.2258,-0.361
3.04,0.0205,-0.0007,9.7898,0.049,0.1517,-0.0307
3.06,-0.0429,0.0689,9.7741,-0.0004,0.1849,0.3859
3.08,-0.0562,0.0514,9.8261,-0.5046,-0.4777,-0.7865
3.1,-0.009,0.02,9.8086,-1.6899,-0.1789,0.7391
3.12,-0.009,-0.0002,9.7957,0.108,0.1515,-0.4975
3.14,-0.0093,-0.046,9.8358,-0.8057,-0.2184,-1.1441
3.16,0.0009,-0.0462,9.8187,0.8392,-0.0572,0.2523
3.18,0.0046,-0.0025,9.7887,-0.7391,0.047,-0.2102
3.2,0.0319,0.0203,9.805,-0.5913,-0.6728,-0.1802
3.22,0.0008,-0.0215,9.8188,-0.3292,-0.1621,-0.5452
3.24,0.0023,-0.0464,9.8458,0.8753,-0.3796,-0.4269
3.26,0.0479,-0.0247,9.7817,-0.6317,-0.5009,0.4676
3.28,-0.0433,0.0048,9.7987,0.1706,-1.2745,-0.2651
3.3,-0.0166,-0.0005,9.8229,-0.3736,-1.0172,-0.1342
3.32,-0.039,-0.0139,9.8162,0.1835,-0.2219,-0.5314
3.34,-0.0368,0.0201,9.7986,-0.0169,-0.4728,-0.3969
3.36,0.033,0.0595,9.8234,-0.7668,0.4469,0.5815
3.38,0.0046,0.0027,9.8227,-0.3238,-0.6279,0.2099
3.4,-0.023,0.0395,9.8463,-0.3069,-0.2894,-0.0575
3.42,0.0374,-0.0081,9.7553,-0.3358,-0.8205,-0.9657
3.44,-0.0052,-0.0326,9.8059,-0.9369,0.5582,0.2592
3.46,-0.0065,-0.0185,9.8525,0.444,-0.5839,0.0029
3.48,-0.0135,0.0187,9.8354,0.4084,0.7301,0.136
3.5,-0.0036,0.0229,9.8036,-0.2096,0.5136,0.6269
3.52,-0.0059,0.0761,9.8091,0.1739,0.1148,0.1447
3.54,0.0427,-0.0026,9.8118,-0.6087,0.0871,0.0447
3.56,0.0029,-0.0045,9.8433,-0.545,0.3876,0.1154
3.58,-0.0093,-0.0253,9.8329,0.189,-0.7831,-0.2009
3.6,-0.004,-0.0241,9.8007,0.0332,-0.5866,-0.488
3.62,0.0182,-0.0362,9.7989,0.7321,-0.3775,-0.1008
3.64,0.0192,-0.001,9.8198,-0.1859,-0.6784,-0.9373
3.66,-0.0083,-0.0842,9.7672,-0.0194,0.0956,-0.3819
3.68,0.0203,0.0273,9.8174,0.435,0.5419,-0.6947
3.7,-0.0429,-0.0153,9.7711,-0.4124,-0.2383,-0.3858
3.72,0.0266,0.0528,9.8018,-0.1088,-0.587,-0.4648
3.74,0.0179,0.0251,9.7755,0.2981,0.7527,0.0419
3.76,-0.0495,0.0384,9.7969,0.3019,0.3178,0.3384
3.78,0.034,0.0292,9.8035,-0.1338,0.6294,0.3043
3.8,-0.004,-0.0116,9.7998,-0.3433,0.1257,-0.2863
3.82,0.0116,0.0264,9.8527,0.5264,0.7556,0.3998
3.84,0.0031,-0.0007,9.8322,-0.5864,-1.2341,-0.2652
3.86,0.0268,-0.054,9.7777,-0.1478,-0.2249,0.511
3.88,-0.0147,0.0529,9.8194,-0.428,0.2559,-0.6531
3.9,-0.0179,-0.0225,9.7699,0.204,-0.564,-0.1435
3.92,0.0079,-0.0163,9.8033,0.3745,-0.6738,-0.1421
3.94,0.0526,0.0219,9.8159,-0.5245,-0.1862,-0.7452
3.96,-0.0129,0.0436,9.8301,-0.2775,-0.5634,0.0532
3.98,0.0186,0.0075,9.8035,1.1665,-1.4332,-0.6765
4.0,-0.0098,-0.0267,9.7983,-0.3001,0.3726,-0.633
4.02,0.0487,0.0122,9.7947,0.347,0.5279,0.1979
4.04,0.0474,-0.0489,9.8541,0.5898,0.8761,0.8189
4.06,0.0515,0.0313,9.8399,0.1516,0.7544,0.6006
4.08,0.0089,-0.0329,9.7851,-0.7696,-0.1543,0.0115
4.1,0.0503,0.0305,9.8539,-0.7869,-0.2343,-0.2629
4.12,0.0476,-0.0207,9.8257,-0.1732,-0.0865,0.6133
4.14,0.013,-0.0462,9.7993,0.1959,-1.0846,-0.3532
4.16,0.0268,-0.0396,9.8302,-0.1233,0.56,0.0781
4.18,-0.0555,-0.0192,9.7952,-0.5627,-0.2827,0.1864
4.2,-0.0028,0.0126,9.7922,-0.6011,0.3645,-0.1257
4.22,-0.0153,-0.0338,9.7991,0.1073,-0.5026,0.2831
4.24,0.0729,0.0069,9.7689,0.1389,0.4248,-0.4797
4.26,0.0484,0.036,9.8254,0.171,0.549,0.4389
4.28,0.0166,0.0065,9.8071,-0.145,0.5717,1.1359
4.3,-0.0296,0.0154,9.7763,0.8807,0.2361,-0.5826
4.32,0.0427,0.0201,9.8034,0.5129,-0.0071,0.4924
4.34,-0.0119,-0.0276,9.7912,-0.4123,0.0938,0.7763
4.36,-0.0028,0.0316,9.791,-0.3374,-0.1042,-0.2233
4.38,0.0221,-0.025,9.7603,-0.433,0.7581,-0.4321
4.4,0.0234,0.0204,9.8124,-0.4192,0.1693,0.0375
4.42,0.0386,0.0074,9.8256,-0.669,0.3064,0.4275
4.44,0.0282,-0.0285,9.8128,-0.3993,0.4988,0.606
4.46,0.0473,-0.0286,9.7822,-0.3241,-0.138,0.2923
4.48,0.001,0.0303,9.8388,-0.2727,-0.4739,-0.6101
4.5,-0.034,-0.0339,9.8455,0.8021,-0.5654,0.307
4.52,-0.0154,0.0038,9.8152,-1.5933,-0.0539,0.1352
4.54,0.0295,-0.0632,9.8085,-0.3442,0.675,0.1583
4.56,-0.0058,-0.0231,9.8365,0.9047,-0.2383,-0.009
4.58,-0.0117,0.0092,9.8079,0.1057,-0.4256,-0.347
4.6,0.0375,-0.0025,9.8031,0.8703,0.0149,-0.2884
4.62,0.0312,-0.0348,9.84,-0.2962,-0.2582,-0.3182
4.64,0.004,0.0234,9.8252,0.7675,-0.7516,-0.1098
4.66,0.0075,-0.0122,9.7896,0.0268,-0.3013,-0.2427
4.68,-0.0261,0.0008,9.7944,-1.3299,-0.1422,0.3746
4.7,0.0471,0.0254,9.827,-0.2365,-0.1382,0.3856
4.72,-0.0256,-0.0008,9.7969,0.1222,-0.6126,0.3986
4.74,0.0303,0.0523,9.8235,-0.1189,-0.4303,-0.6699
4.76,0.0254,0.0225,9.8542,0.6687,-0.2176,-0.2813
4.78,0.0194,0.0321,9.8346,-0.6598,0.767,0.1135
4.8,0.0036,-0.0321,9.8167,0.0052,-0.5652,-0.3884
4.82,-0.0024,0.0622,9.8037,0.4372,0.2132,-0.0178
4.84,-0.0392,-0.0224,9.7819,-0.2601,-0.2509,0.0735
4.86,0.0579,0.0222,9.8036,-1.2269,0.3711,-0.0882
4.88,0.0402,-0.0549,9.7997,0.1961,-0.8994,0.1523
4.9,-0.0541,0.0475,9.804,-0.6981,-0.825,-0.3533
4.92,0.0165,0.0219,9.8101,-1.0247,0.545,-1.1055
4.94,0.0062,-0.0163,9.8096,0.2167,0.7313,-0.1599
4.96,-0.0567,-0.0034,9.8243,0.3553,0.3136,0.3076
4.98,-0.0125,0.0121,9.7993,0.5758,-0.7168,0.1655
5.0,-0.0408,0.0032,9.7802,0.3129,0.1326,-0.5095
5.02,0.0016,0.0092,9.8193,-0.6547,0.4799,-0.6384
5.04,-0.0372,-0.0142,9.8205,-0.8876,0.2143,-0.2177
5.06,0.0592,0.0542,9.7901,-0.0745,-0.5673,-0.3342
5.08,0.0073,0.03,9.8576,-0.5847,0.2357,0.0424
5.1,0.0167,-0.01,9.8271,-0.0133,-0.0834,-0.3947
5.12,-0.0001,0.008,9.7645,0.1911,-0.2211,-0.197
5.14,-0.0187,-0.0516,9.7602,0.4294,-0.0133,-0.775
5.16,-0.0083,-0.0167,9.8415,-0.7193,-0.7636,0.0036
5.18,-0.0084,-0.003,9.8192,0.6212,0.7076,-0.1997
5.2,-0.0135,0.0619,9.8093,-0.5453,0.5971,0.666
5.22,-0.0223,-0.0248,9.8462,0.0124,-0.1422,-0.032
5.24,-0.0285,0.0211,9.7998,0.2283,-0.333,0.3061
5.26,0.03,-0.0252,9.813,0.1047,0.113,0.3703
5.28,0.0017,0.0067,9.8501,0.0508,-0.4868,-0.4393
5.3,0.0016,0.0202,9.7729,-0.4214,0.3349,-0.1231
5.32,-0.0167,-0.0627,9.8046,-0.8898,0.3529,0.2835
5.34,-0.0231,-0.0147,9.8215,0.6196,-0.2499,-0.1146
5.36,0.0143,0.0001,9.8038,-0.6997,-0.0237,0.2154
5.38,-0.0078,0.0035,9.8316,-0.4537,-0.0251,-0.5129
5.4,0.0153,0.0445,9.822,-0.8522,0.4162,-0.0863
5.42,-0.0147,-0.0151,9.8395,1.4219,0.5799,-0.5371
5.44,-0.017,-0.0186,9.8244,0.4312,-0.6463,-0.2608
5.46,-0.0464,-0.0169,9.8227,0.4499,0.7273,0.0362
5.48,-0.0437,-0.0227,9.7917,0.2331,1.4851,-0.0559
5.5,0.0155,-0.0304,9.8264,-0.1682,0.1718,-0.4625
5.52,-0.0505,-0.0053,9.8263,0.2831,-0.1161,-0.0975
5.54,-0.061,0.0015,9.7659,0.3143,0.1083,-0.4532
5.56,-0.0233,-0.0083,9.8432,0.3386,0.1641,0.0601
5.58,-0.0142,-0.0044,9.7891,0.1867,-0.5154,-0.2606
5.6,-0.0211,-0.0241,9.8519,0.0217,-0.6535,-0.2582
5.62,-0.0256,0.0475,9.8567,0.4708,0.0285,0.1435
5.64,0.0471,0.0048,9.7793,0.0384,0.3099,0.132
5.66,0.0259,-0.0261,9.8271,0.7959,-0.0733,0.2025
5.68,-0.0666,0.0155,9.8057,0.0375,-0.5877,-0.6401
5.7,0.002,-0.0292,9.8157,0.127,0.1664,-0.4961
5.72,-0.0319,-0.0382,9.8084,-0.327,-0.2997,0.856
5.74,0.0232,-0.0164,9.8002,-0.9993,-0.622,-0.3612
5.76,-0.0344,-0.0136,9.8273,-0.2858,-0.2927,0.2063
5.78,-0.0506,-0.0039,9.8262,-0.712,0.5006,0.6551
5.8,-0.0428,0.0448,9.7712,-0.0847,-0.3252,0.1902
5.82,-0.0316,0.0015,9.8038,0.0596,-0.1457,-0.1718
5.84,-0.0206,0.0278,9.8327,0.0006,0.6582,0.3791
5.86,-0.0019,-0.0592,9.8122,-0.4448,-0.454,0.6309
5.88,-0.036,0.0215,9.7917,0.3796,-0.2868,-0.0361
5.9,0.0175,-0.0025,9.8276,0.0179,-0.2903,0.1125
5.92,-0.0142,0.0402,9.8372,0.6283,0.2294,0.3471
5.94,-0.0113,0.0126,9.7654,-0.2537,1.0016,0.0027
5.96,-0.0018,-0.059,9.8338,0.3386,0.0934,0.0466
5.98,-0.048,0.0032,9.8459,-0.3949,0.0676,0.42
6.0,-0.0982,0.0296,9.8305,0.4518,-0.5655,-0.092
6.02,-0.053,0.0035,9.7918,-0.4303,0.1156,-0.6245
6.04,-0.0774,0.0289,9.802,0.3274,-0.8197,-0.5239
6.06,-0.0454,0.0018,9.816,0.3249,-0.5773,0.7137
6.08,-0.0289,0.0368,9.8047,0.2254,0.4742,-0.107
6.1,-0.0015,0.0404,9.844,0.2466,0.0976,-0.288
6.12,0.0051,-0.0049,9.8197,-0.2702,0.3132,0.5086
6.14,-0.0323,-0.0074,9.8201,-0.5059,1.1466,-0.3713
6.16,-0.0102,0.0097,9.7788,0.2427,-0.2264,-0.0872
6.18,-0.0312,0.0482,9.8029,0.0481,-0.0142,-0.0039
6.2,-0.0411,0.0725,9.8348,0.0622,-0.7123,0.3975
6.22,-0.026,-0.0006,9.8013,0.0495,0.7201,-0.4214
6.24,-0.0439,-0.0644,9.809,0.4737,0.2377,-0.4322
6.26,-0.025,-0.0065,9.7824,-0.1474,-0.197,-0.3579
6.28,0.0287,0.0258,9.8374,0.5502,1.3863,-0.7648
6.3,0.0082,0.0363,9.7984,-0.623,0.4917,0.4381
6.32,0.046,0.0249,9.7962,0.2185,-0.4748,-0.4799
6.34,0.0251,-0.017,9.8252,-0.3128,0.3799,1.4079
6.36,-0.0432,-0.0169,9.7585,0.0986,0.6488,0.158
6.38,-0.0171,-0.0028,9.8043,-0.1708,-0.0002,0.4924
6.4,0.0534,-0.0156,9.7967,0.7131,-0.4665,0.1966
6.42,-0.0027,-0.0167,9.8038,-0.4358,-0.4865,-0.0066
6.44,-0.0338,-0.0222,9.8299,0.6245,-0.3389,0.2519
6.46,0.0171,-0.0383,9.7624,0.5726,-0.0751,-0.0269
6.48,-0.0328,-0.0598,9.7971,-0.137,-0.6352,-0.6785
6.5,0.0045,0.0236,9.8387,0.9603,-1.561,-0.0636
6.52,0.0071,0.0121,9.8043,-0.0939,-0.2465,0.0256
6.54,-0.0337,-0.02,9.7908,-0.0247,-0.4914,0.0144
6.56,0.0364,-0.0418,9.7899,0.6393,-0.2811,-0.6222
6.58,-0.0148,0.0339,9.8341,0.1616,0.4595,0.0216
6.6,-0.0427,0.0005,9.8033,-0.5027,-0.9916,0.2731
6.62,-0.03,0.0166,9.8067,0.3581,-0.6408,-0.5358
6.64,0.0029,0.0156,9.7999,0.7476,0.2507,-0.4245
6.66,-0.0221,0.0153,9.8494,0.4402,-0.3609,-0.1574
6.68,-0.0226,-0.0124,9.7986,0.3416,-0.5467,-0.0539
6.7,-0.0118,-0.0112,9.7863,0.8598,0.1676,0.0851
6.72,0.0439,-0.0672,9.8171,-0.5265,-0.8447,-0.2586
6.74,-0.0297,-0.0169,9.8232,-0.0712,0.1774,0.469
6.76,0.0126,0.0064,9.8103,-0.2192,0.7116,0.5358
6.78,0.0697,0.0227,9.8215,0.8402,0.5809,0.0947
6.8,-0.0404,-0.017,9.8071,-0.5336,-0.1007,-0.4193
6.82,0.0227,-0.022,9.7948,-0.3185,0.0646,-0.0636
6.84,-0.035,-0.057,9.8278,-0.0819,-0.0546,-0.0335
6.86,0.0196,0.0306,9.8408,0.0954,0.0057,-0.4262
6.88,-0.01,-0.0057,9.8121,-0.1057,0.2712,0.567
6.9,0.0214,-0.0357,9.847,-0.033,-0.2689,-0.2599
6.92,-0.0118,-0.036,9.7872,0.2965,-0.2835,-0.454
6.94,-0.0173,-0.061,9.7837,-0.6901,0.0993,-0.7393
6.96,-0.0401,0.0341,9.828,0.1529,1.0646,0.9201
6.98,0.0324,0.0228,9.8207,-0.6534,-0.0337,0.1595
7.0,0.0317,0.025,9.8091,1.2288,0.1021,0.3183
7.02,0.0203,-0.0336,9.8356,-0.5908,0.2194,0.2584
7.04,0.0042,-0.0207,9.8328,-0.2214,0.3564,-0.0699
7.06,0.0182,0.0219,9.8504,0.0752,0.1081,-0.2178
7.08,0.0244,-0.0647,9.8005,-0.3784,0.1016,0.1854
7.1,-0.0093,-0.0175,9.8342,0.7637,0.044,-0.5168
7.12,-0.0109,-0.0039,9.7844,0.3982,0.8771,0.0683
7.14,0.0193,0.02,9.8066,0.281,-0.0422,0.7199
7.16,0.0378,-0.0101,9.8157,0.011,0.9588,-0.0415
7.18,0.0058,-0.0331,9.8046,-0.5616,-0.2514,0.3972
7.2,0.0586,-0.0031,9.8302,0.1713,-0.0602,-0.115
7.22,0.0355,-0.0308,9.7973,-0.2697,-0.5405,-0.083
7.24,-0.0109,0.003,9.807,0.5145,-0.9237,0.1303
7.26,0.0385,-0.0196,9.8044,0.0749,0.0074,-0.4841
7.28,0.0619,-0.0096,9.7944,0.0151,-0.3417,-0.3041
7.3,0.0208,0.0011,9.777,-0.9284,-0.3126,-0.1682
7.32,0.0678,0.0189,9.8396,-0.3537,0.3541,-0.6093
7.34,0.0719,0.0409,9.8,1.0347,-0.6945,0.1334
7.36,-0.0055,-0.0025,9.832,-0.7986,-0.3703,-0.3608
7.38,0.0354,-0.0026,9.8175,0.3555,-0.4025,0.7843
7.4,0.0293,0.0325,9.8023,0.4266,-0.7852,-0.7057
7.42,0.0304,-0.0154,9.7978,0.6701,0.2744,-0.049
7.44,0.0212,-0.0204,9.7786,-0.146,-0.2196,-0.051
7.46,-0.0192,-0.024,9.7941,-0.2454,0.4026,0.2385
7.48,0.0649,-0.0173,9.8285,0.3684,-0.0086,-0.1902
7.5,0.0279,0.0035,9.8355,0.0981,0.0205,-0.6161
7.52,-0.0047,0.0121,9.8515,0.1158,-0.3199,0.6673
7.54,0.0569,0.0315,9.7963,0.1286,0.5382,0.6615
7.56,0.0292,-0.0093,9.7895,0.2026,-0.5937,-0.0707
7.58,0.0019,-0.0381,9.7855,0.7523,0.7418,0.3472
7.6,0.0557,-0.0205,9.774,0.6208,-0.0639,0.2282
7.62,0.0802,0.008,9.8072,-0.4895,0.8304,1.0187
7.64,-0.0128,0.007,9.8404,-0.4565,-0.7726,-0.2655
7.66,-0.0074,-0.0003,9.8251,0.3182,-0.0703,-0.0117
7.68,-0.029,0.0262,9.7938,0.5646,-0.338,-0.4001
7.7,0.025,-0.011,9.8158,-0.3671,0.7952,0.1775
7.72,0.0022,0.014,9.8266,0.2219,0.0074,-0.2218
7.74,-0.0174,-0.0174,9.8349,0.8838,-0.8239,-0.5967
7.76,0.0395,-0.022,9.8369,1.1878,-0.9564,-0.2788
7.78,-0.0308,-0.0291,9.859,-0.4021,0.6291,-0.6843
7.8,0.0281,-0.0015,9.7888,0.0132,0.1488,-0.2765
7.82,0.0157,0.0177,9.8008,0.0603,0.6656,0.4291
7.84,0.062,0.0312,9.8508,-0.5294,0.0651,0.0441
7.86,0.0235,-0.0302,9.8258,0.1718,0.3448,0.2467
7.88,0.0179,-0.031,9.7827,0.1449,1.0527,0.4152
7.9,0.0215,0.0436,9.8264,-0.2046,-0.0628,-0.0201
7.92,-0.0422,-0.0274,9.8424,-1.1506,0.0517,0.4013
7.94,0.0316,0.0225,9.8004,0.2145,0.6182,-0.1772
7.96,0.0291,-0.0216,9.8003,0.3126,-0.3345,-0.3759
7.98,-0.0189,-0.0023,9.8373,0.3536,0.0699,-0.3903
8.0,-0.0013,0.0069,9.8211,-0.1378,-0.2859,0.3102
8.02,0.0069,-0.0095,9.8036,-0.055,0.4085,0.4598
8.04,-0.0338,-0.0358,9.8181,-0.2214,-0.0795,0.6762
8.06,0.0161,-0.0229,9.7738,0.7573,0.5344,0.3399
8.08,0.0072,0.0204,9.8072,0.548,0.0464,0.296
8.1,-0.0099,0.0877,9.8194,-0.1778,0.3994,0.7579
8.12,0.0372,-0.0124,9.7892,-0.0304,-0.0148,-0.0272
8.14,-0.0014,-0.0117,9.8252,-0.1547,0.3107,0.857
8.16,-0.0211,0.0263,9.7962,-0.3912,-0.5736,0.7618
8.18,-0.0318,0.0051,9.822,-0.2052,1.3221,-0.6445
8.2,-0.0219,-0.0027,9.8114,-0.3415,0.643,0.0737
8.22,0.0091,0.0188,9.8622,-0.2203,0.4128,-0.7474
8.24,-0.0178,0.0344,9.7944,0.3437,0.1111,0.0468
8.26,0.0332,0.014,9.7875,-1.6092,0.0508,-0.5473
8.28,0.0113,0.0353,9.8238,0.7292,-1.0067,0.2457
8.3,-0.0275,0.0395,9.7989,0.315,0.3482,0.2385
8.32,-0.0099,0.0306,9.8478,0.3843,-0.6222,-0.0846
8.34,0.0327,0.0216,9.809,-0.0763,-0.17,-0.2306
8.36,-0.0658,0.0006,9.8508,-0.4616,0.8031,-0.6525
8.38,-0.0203,-0.005,9.7971,-0.6712,-0.5545,0.1247
8.4,-0.0429,-0.038,9.8275,-0.0542,-0.4968,0.1493
8.42,0.0239,0.0226,9.8059,-0.2337,-0.1482,-0.4156
8.44,-0.0367,0.0322,9.8828,-0.2139,0.0605,-0.1834
8.46,0.0078,-0.0341,9.8422,0.6042,0.5178,0.1219
8.48,0.0143,-0.0301,9.8123,0.4505,-0.4222,0.0215
8.5,-0.0307,-0.0157,9.8346,-0.4171,0.3195,0.3913
8.52,-0.0274,-0.0147,9.7534,0.5765,-0.2477,0.5805
8.54,-0.025,0.0333,9.8005,0.2598,-0.3886,0.2797
8.56,0.0029,-0.0046,9.785,0.0268,-0.8012,-0.5393
8.58,0.0191,0.0196,9.8169,0.4121,-0.4899,0.5952
8.6,-0.0053,0.0388,9.8386,-0.0128,0.7416,-0.0823
8.62,-0.0112,0.0095,9.8164,0.351,0.1075,-0.076
8.64,-0.0458,0.0308,9.8373,-0.2209,0.9248,0.3379
8.66,-0.02,0.0175,9.8183,-0.1226,0.775,0.0414
8.68,0.0089,-0.0264,9.8148,0.0862,0.0377,-0.292
8.7,0.0104,-0.0276,9.8082,0.1008,-0.5004,0.0622
8.72,0.0244,0.0013,9.8389,0.5114,0.316,0.3226
8.74,0.0433,0.0045,9.7733,-0.2573,-0.412,0.5295
8.76,-0.0561,-0.0263,9.7898,0.4472,-0.5052,0.1678
8.78,-0.0624,0.0401,9.8422,-0.0868,-0.1743,0.2408
8.8,-0.0154,-0.0385,9.8189,-0.5922,0.5828,0.5461
8.82,-0.0267,-0.012,9.7848,0.1361,-0.2833,-0.7009
8.84,0.0173,-0.0311,9.7693,-0.1941,0.3715,0.5561
8.86,-0.0234,-0.0563,9.7791,0.5453,0.7972,0.0838
8.88,-0.0408,0.0363,9.7955,-1.0016,-0.3241,0.359
8.9,-0.0357,-0.037,9.7453,0.322,-0.119,0.4063
8.92,-0.0605,-0.082,9.8276,-0.5404,0.0029,-0.3025
8.94,0.0157,-0.0274,9.8004,0.2747,0.0062,-0.5062
8.96,-0.099,0.0294,9.7928,-0.3398,0.064,0.4176
8.98,-0.0281,-0.0316,9.8075,-0.5419,-0.0089,0.0354
9.0,-0.0164,0.0211,9.7899,0.6555,-0.5535,0.0216
9.02,0.0455,-0.0041,9.8211,-0.0358,0.6004,-0.5549
9.04,0.0068,0.0564,9.8425,0.2692,0.469,-0.5682
9.06,-0.0439,0.0316,9.7888,-0.7182,-0.2229,-0.2195
9.08,-0.0311,0.0125,9.8186,0.9466,-0.1643,-0.5485
9.1,-0.0772,-0.0535,9.8104,-0.2222,0.5543,0.5756
9.12,-0.0208,0.0748,9.8362,0.4307,-0.515,0.4482
9.14,-0.0093,-0.0465,9.7804,0.8351,0.1833,0.1856
9.16,-0.0288,-0.0068,9.8091,-0.2448,0.5405,-0.5407
9.18,-0.041,-0.0491,9.8499,-0.4325,0.1146,-0.2065
9.2,-0.0757,0.0021,9.8092,-0.5337,0.6193,-0.0032
9.22,0.0018,0.0216,9.791,-0.0658,0.2672,-0.3098
9.24,0.0112,-0.0098,9.781,-0.3275,0.0036,-1.2448
9.26,-0.0163,0.0379,9.8236,-0.381,-0.4343,-0.1168
9.28,0.0285,0.0018,9.8301,-0.2275,-0.4225,-0.0856
9.3,-0.0251,-0.0016,9.8363,0.5307,-0.3282,1.0355
9.32,0.04,-0.0029,9.8351,-0.336,0.831,-1.2406
9.34,-0.0536,0.0184,9.8151,1.0181,-0.4975,-0.04
9.36,-0.0048,0.0156,9.8692,-0.0824,0.8434,0.3446
9.38,0.0679,0.0028,9.8336,0.4549,0.2505,0.9747
9.4,0.0131,-0.0263,9.8197,0.5232,0.4376,0.1381
9.42,-0.0866,0.0134,9.8239,-0.6713,-0.6515,-0.1
9.44,-0.018,0.0113,9.753,0.0418,1.3342,-0.4322
9.46,-0.0535,0.0197,9.8631,-0.3503,-0.6125,-0.9151
9.48,-0.0037,0.0124,9.8286,0.2308,0.5453,0.703
9.5,0.011,-0.0206,9.847,0.5383,-1.1892,-0.3767
9.52,-0.0389,0.0059,9.8135,-0.5694,0.3829,0.4758
9.54,-0.0686,-0.0645,9.8393,-0.9117,0.6751,-0.723
9.56,-0.0251,0.0185,9.8528,0.0529,-0.3627,-0.9459
9.58,0.0345,0.0262,9.7816,-0.4249,0.0414,0.1218
9.6,-0.0246,-0.0167,9.8125,0.4676,-0.104,0.4041
9.62,0.0052,0.0682,9.8492,-0.5345,0.0838,0.1049
9.64,-0.04,0.0416,9.7882,-0.207,-0.0499,0.3588
9.66,0.0209,0.0026,9.7647,-0.4589,-0.6363,-0.1372
9.68,0.0266,0.0118,9.7919,-0.3033,-0.7184,-0.3644
9.7,0.0002,0.0048,9.8242,0.5163,0.291,-0.4743
9.72,0.0144,-0.0474,9.8248,0.0758,-0.0395,0.1193
9.74,-0.0049,0.027,9.7502,0.0343,0.3915,0.1896
9.76,0.0327,0.0241,9.8406,-0.4014,0.1488,0.1101
9.78,-0.0422,-0.0097,9.826,-0.0947,-0.2573,-0.0095
9.8,-0.0151,-0.0817,9.8345,-0.3049,0.2009,-0.0242
9.82,-0.0729,-0.0001,9.7915,-0.0945,0.1468,0.1512
9.84,-0.0214,0.0139,9.8097,-0.0971,-1.1728,-0.2908
9.86,-0.0306,0.0375,9.799,-0.2297,0.3623,0.5817
9.88,0.0398,-0.0474,9.8532,-0.4659,0.7772,0.3746
9.9,-0.0198,-0.0128,9.7989,0.355,-0.0591,-0.2509
9.92,-0.0315,0.0106,9.7922,-0.1113,-0.7928,-0.1048
9.94,-0.0552,-0.0234,9.8304,-0.2305,-0.5103,-0.2389
9.96,0.0373,0.0329,9.8011,0.0508,-0.0961,0.4293
9.98,0.0453,-0.0565,9.8355,-0.2419,0.1154,0.2319
10.0,-0.0034,-0.0137,9.806,-0.9697,-0.376,0.0285
10.02,-0.0331,-0.0305,9.7708,-0.0339,-0.1188,-0.2684
10.04,0.0261,-0.0028,9.7913,0.3476,0.4301,0.3008
10.06,0.0407,-0.0046,9.822,-0.4665,0.2261,0.2603
10.08,-0.0308,0.0199,9.7966,-0.6172,-0.3843,0.5497
10.1,0.0032,0.0069,9.8045,-1.4467,-0.8167,0.0129
10.12,0.0354,-0.0219,9.7643,-0.3003,0.8613,-0.523
10.14,-0.0353,0.0237,9.8271,0.0142,0.4612,0.2047
10.16,-0.0455,0.0016,9.8216,-0.0417,-0.3295,0.1509
10.18,-0.0083,0.0186,9.7955,0.1409,0.7084,-0.1474
10.2,0.0723,0.0292,9.7788,-0.4278,0.0733,-0.3072
10.22,0.0054,-0.0243,9.8386,0.2107,0.3481,0.2044
10.24,-0.0117,-0.0018,9.8729,-0.3954,-0.259,0.1044
10.26,-0.0057,-0.0015,9.8329,0.5529,-0.4243,-0.3469
10.28,0.0297,0.0076,9.8016,-0.3723,-0.302,0.1441
10.3,0.0362,-0.0031,9.7987,0.3208,0.1736,0.4491
10.32,0.0147,-0.0015,9.807,0.8689,0.089,0.0432
10.34,-0.0416,0.0605,9.7695,-0.5642,-0.026,-0.9199
10.36,0.0183,-0.0359,9.8497,-0.2945,0.4852,0.3592
10.38,-0.0099,-0.0129,9.7743,0.4375,0.1538,-0.0606
10.4,0.0081,0.028,9.7786,0.9284,-0.6847,-0.2224
10.42,0.0186,-0.0322,9.8262,-0.4547,-0.5316,-0.2611
10.44,0.0631,-0.015,9.8026,0.5037,0.2523,0.148
10.46,0.0458,-0.0006,9.8731,-0.0272,-0.4693,0.1703
10.48,0.0705,0.021,9.7968,-0.1938,-0.1208,-0.2767
10.5,0.0257,0.0009,9.8009,-0.0278,0.3512,0.014
10.52,0.0321,-0.0335,9.8424,-0.1928,0.5465,0.2862
10.54,-0.0211,-0.0405,9.8265,-0.3317,-0.0764,0.0253
10.56,0.029,-0.0271,9.818,-0.787,0.6781,0.0605
10.58,0.0724,-0.0009,9.8387,0.3135,-0.2105,0.2645
10.6,0.0716,-0.0177,9.7614,-0.5813,0.0386,0.345
10.62,0.0323,-0.0128,9.7928,-0.8173,0.2092,0.3547
10.64,0.0148,0.0437,9.8524,0.7081,-0.6122,-0.1699
10.66,0.0173,-0.0234,9.7833,0.3758,0.0266,-0.0846
10.68,0.011,0.0364,9.7992,-0.2837,-0.1154,0.0819
10.7,0.0202,-0.0194,9.826,0.0692,0.8848,0.7582
10.72,0.0213,0.0065,9.8114,0.0959,0.8437,0.0364
10.74,0.0214,-0.0375,9.8189,0.011,-0.0402,0.1234
10.76,-0.0192,-0.0104,9.7956,0.4402,-0.306,0.4227
10.78,0.0372,-0.0159,9.803,0.4311,0.3341,-0.0291
10.8,-0.0009,-0.0198,9.7732,-0.6332,-0.5741,-0.1065
10.82,-0.0026,-0.0008,9.8059,-0.374,-0.1041,-0.5075
10.84,-0.022,0.0433,9.8157,0.018,0.7878,0.6453
10.86,0.0139,0.0385,9.8198,-0.0134,-0.0637,-0.0278
10.88,0.0451,-0.0052,9.8475,0.3713,-0.2138,0.558
10.9,0.052,0.0114,9.8252,0.0575,0.3168,0.3492
10.92,0.0472,0.0291,9.809,-0.3694,0.072,0.0068
10.94,0.0148,-0.0751,9.7947,-0.4687,0.3457,0.5557
10.96,-0.0217,-0.0306,9.7967,0.5477,-0.3438,0.0892
10.98,0.0255,-0.0512,9.8157,0.7023,-0.0378,-0.143
11.0,-0.0066,0.006,9.8459,-0.3901,0.7551,-0.0105
11.02,0.0219,0.0411,9.7895,-0.013,0.7058,0.409
11.04,0.006,0.0283,9.8216,-0.4249,0.1764,-0.0697
11.06,0.0543,0.0197,9.8228,0.1152,0.0502,-0.306
11.08,0.0386,-0.0248,9.8278,-0.1031,0.3526,-0.1543
11.1,-0.0158,-0.0075,9.8222,-1.3405,-0.2343,-0.0586
11.12,0.0208,0.0595,9.8207,-0.3437,0.218,-0.0113
11.14,0.0217,0.0258,9.7982,0.4669,1.3657,-0.162
11.16,0.0427,-0.0401,9.7967,-0.0908,-0.1259,0.1692
11.18,0.0062,0.0005,9.8254,-0.3559,0.5242,-0.1099
11.2,0.0403,-0.0059,9.7971,0.5567,0.1984,-0.0705
11.22,0.0705,0.0554,9.7934,0.016,-0.6553,-0.6531
11.24,-0.0385,-0.0029,9.7979,0.5612,-0.5088,-0.1919
11.26,-0.0352,-0.0308,9.7785,0.2521,0.8617,-0.1317
11.28,0.042,0.0016,9.8376,-0.6821,0.4351,-0.4151
11.3,-0.0032,0.0069,9.8246,-0.7807,0.3879,0.5533
11.32,0.0253,0.0385,9.8171,0.1689,0.3943,0.228
11.34,-0.0203,0.0823,9.8935,-1.0532,0.3581,0.2848
11.36,-0.0549,-0.0284,9.7953,-0.5048,-0.0434,-0.0566
