time_s,Ax,Ay,Az,Gx,Gy,Gz
0.0,0.0681,0.5037,9.878,1.0318,7.1756,4.2057
0.02,0.019,0.6608,9.94,6.6227,10.6993,4.5777
0.04,0.0149,0.6205,10.0049,-1.4269,10.1176,3.2759
0.06,0.0949,0.6369,10.1739,3.7825,9.5102,3.6274
0.08,0.1202,0.7101,10.0817,3.7484,6.9996,2.5429
0.1,0.1767,0.6035,10.2204,7.4557,6.7567,3.3018
0.12,0.1007,0.7619,10.3109,12.4224,9.7012,2.0039
0.14,0.2119,0.5833,10.2168,14.7842,7.3131,5.0583
0.16,0.246,0.6801,10.3093,11.5232,6.9525,1.4371
0.18,0.1023,0.4699,10.3728,6.5544,4.5626,0.375
0.2,0.3075,0.8175,10.3691,16.285,9.5807,1.1163
0.22,0.2099,0.7682,10.3643,10.964,3.2664,-0.9305
0.24,0.0944,0.7539,10.4079,8.8839,5.6252,0.8453
0.26,0.1599,0.7388,10.2495,12.5423,6.7835,-3.0417
0.28,0.1315,0.6959,10.2656,12.5237,14.2199,-2.7589
0.3,0.2352,0.6464,10.1412,9.2699,8.3929,-3.1168
0.32,0.1848,0.7367,10.1397,6.5539,10.9285,1.0145
0.34,0.0754,0.7249,10.0912,8.5625,8.3374,-2.9024
0.36,0.0582,0.4604,10.0191,7.8803,4.4227,-3.7671
0.38,0.1645,0.6639,9.93,3.9242,6.0228,-5.1065
0.4,0.0491,0.6392,9.8555,2.0064,9.1835,-1.351
0.42,-0.0323,0.5532,9.8879,1.0337,7.1692,-6.245
0.44,-0.056,0.4615,9.8782,-1.2272,11.3307,-2.1752
0.46,-0.0483,0.5813,10.0235,-2.8313,6.2059,-1.7207
0.48,-0.1368,0.4005,10.0849,-6.8157,6.2532,-3.4263
0.5,-0.206,0.4391,10.2417,-4.2894,9.4872,-2.4816
0.52,-0.118,0.5015,10.15,-9.5927,5.3614,-2.7695
0.54,0.002,0.6181,10.1872,-7.3023,4.4612,-2.2604
0.56,-0.1831,0.4648,10.1615,-11.7287,6.2572,-0.4559
0.58,-0.1386,0.3347,10.4299,-12.6736,8.6048,-2.1778
0.6,-0.2462,0.4359,10.3791,-15.6104,5.7374,-0.034
0.62,-0.1671,0.3558,10.3063,-9.6949,7.6566,0.9667
0.64,-0.1961,0.5037,10.475,-13.0741,6.7261,1.9815
0.66,-0.3211,0.2244,10.3835,-9.6983,9.4362,-0.4355
0.68,-0.2379,0.4846,10.3181,-4.9576,8.2921,-0.7478
0.7,-0.18,0.3618,10.3951,-11.5,9.53,4.4731
0.72,-0.1377,0.4409,10.2492,-9.0201,5.7913,3.6871
0.74,-0.1401,0.371,10.1315,-11.8993,8.4581,3.6828
0.76,-0.0765,0.332,10.0791,-5.8015,8.1105,0.7474
0.78,-0.2082,0.4489,10.1078,-3.9671,6.831,7.0063
0.8,-0.0489,0.3682,9.8513,-4.9714,8.8145,1.3037
0.82,-0.1064,0.5498,9.903,-0.7985,10.3701,2.9022
0.84,0.0377,0.6425,9.7975,1.4202,7.0212,4.1229
0.86,0.0903,0.5877,9.9843,7.7708,7.3693,6.2247
0.88,0.047,0.5196,10.0522,0.6301,6.342,3.2357
0.9,0.0926,0.5348,10.1992,3.9358,6.2135,2.9744
0.92,0.0897,0.5798,10.1711,9.3449,6.1273,2.0431
0.94,0.1851,0.7636,10.1797,9.0084,6.9665,2.4039
0.96,0.1689,0.6172,10.3339,9.73,5.5802,0.9742
0.98,0.1981,0.7205,10.3598,9.7824,7.478,-1.1345
1.0,0.2569,0.7266,10.3586,10.3088,4.8412,0.6693
1.02,0.2942,0.7303,10.4146,10.6114,9.6285,1.0336
1.04,0.1863,0.7632,10.401,16.2644,8.9833,-3.2969
1.06,0.0788,0.7392,10.3373,10.9797,8.1873,0.0987
1.08,0.1997,0.7108,10.4473,13.3172,9.245,0.338
1.1,0.1609,0.8232,10.2984,10.3255,11.0583,-2.5085
1.12,0.1959,0.6513,10.2095,10.8635,9.2752,-1.4283
1.14,0.0524,0.6567,10.1589,9.273,7.2104,-4.2088
1.16,0.1575,0.5977,10.2278,12.5265,6.3702,-1.0397
1.18,0.056,0.5947,10.1811,7.9887,8.172,-2.9338
1.2,0.034,0.6609,10.0659,5.5347,7.5344,-0.3604
1.22,0.0019,0.6024,9.948,5.0602,7.6347,-3.9778
1.24,0.096,0.4889,9.8249,-0.0979,9.2078,-5.7611
1.26,-0.0632,0.5809,9.9351,-1.6885,11.0341,-2.7803
1.28,-0.0482,0.4312,9.863,-4.6596,9.3838,-4.5905
1.3,-0.0387,0.6816,10.0723,-2.9875,6.1189,-5.7537
1.32,-0.1785,0.545,10.1363,-5.2271,9.4747,-3.8256
1.34,-0.0056,0.486,10.1335,-6.3187,7.5941,-2.6762
1.36,-0.1407,0.4684,10.171,-9.9726,10.0574,-1.946
1.38,-0.2012,0.5037,10.1781,-11.3354,7.3832,-3.321
1.4,-0.3427,0.4251,10.3533,-12.1188,10.1645,-4.6414
1.42,-0.245,0.2925,10.3843,-11.9044,7.403,-2.0897
1.44,-0.2182,0.4546,10.3194,-10.7945,3.0027,0.1519
1.46,-0.1845,0.3627,10.4118,-9.9863,8.1633,-2.2217
1.48,-0.1949,0.3806,10.2608,-15.8546,9.5226,1.3059
1.5,-0.157,0.4629,10.3739,-13.9954,5.3038,1.6492
1.52,-0.2835,0.4856,10.3,-11.9539,7.1482,1.879
1.54,-0.2027,0.5656,10.3151,-13.0784,4.805,5.3595
1.56,-0.1923,0.4256,10.2201,-11.447,10.8347,4.919
1.58,-0.0161,0.4602,10.1111,-7.7716,8.8945,3.2745
1.6,-0.1108,0.629,10.1292,-7.3616,8.0333,2.0483
1.62,-0.0915,0.6171,10.0632,-3.1929,9.5303,2.9394
1.64,0.0505,0.5287,9.892,0.2936,9.4327,4.8375
1.66,-0.0739,0.5903,9.7699,-3.9613,9.4986,2.3919
1.68,0.1072,0.6117,9.9548,3.8265,9.3513,0.8277
1.7,0.0741,0.6205,9.9371,1.5741,6.2716,2.7778
1.72,0.1403,0.622,9.9909,3.7552,9.7299,4.2725
1.74,0.0294,0.5603,10.1454,9.7326,6.6246,5.9261
1.76,0.2127,0.9257,10.1025,8.7274,6.8654,3.1118
1.78,0.1284,0.6938,10.2418,8.3682,6.9443,3.3383
1.8,0.1994,0.6591,10.2789,8.1554,5.6015,4.6683
1.82,0.1807,0.7071,10.3276,10.6848,9.3632,0.9236
1.84,0.0711,0.7429,10.3859,9.4117,6.3535,3.5371
1.86,0.2281,0.5688,10.3581,13.2509,7.1383,1.7454
1.88,0.2684,0.7544,10.4125,13.2125,9.0118,-0.1007
1.9,0.172,0.5684,10.3428,12.4165,6.494,-0.6396
1.92,0.2772,0.7808,10.4456,11.2001,11.8643,-1.5573
1.94,0.251,0.7536,10.309,9.4479,9.6705,-2.403
1.96,0.1296,0.6629,10.1847,8.469,6.0626,0.171
1.98,0.0084,0.5838,10.2417,7.1007,8.3737,-2.9382
2.0,0.0815,0.7058,10.1726,4.7474,9.7136,-3.0221
2.02,0.2216,0.6681,10.0607,4.1812,8.3196,-2.9514
2.04,0.047,0.4839,9.9809,3.9665,8.6947,-3.5881
2.06,0.1811,0.5077,9.9071,-0.9741,6.467,-1.3206
2.08,0.0243,0.5627,9.8886,0.777,7.0305,-5.1466
2.1,-0.0966,0.5806,9.9419,-2.779,5.1618,-0.703
2.12,-0.0649,0.3982,10.008,-4.4483,6.3861,-2.335
2.14,-0.1754,0.4183,9.9789,-5.3299,8.9338,-2.8674
2.16,-0.1996,0.5488,10.1558,-10.492,7.6973,-2.9399
2.18,-0.0053,0.4465,10.2399,-7.9098,7.9634,-4.6447
2.2,-0.1453,0.4846,10.2674,-4.2888,8.7303,-0.5639
2.22,-0.1631,0.4206,10.3393,-10.7626,9.2725,-1.8368
2.24,-0.1813,0.2945,10.3373,-14.524,3.5279,0.6839
2.26,-0.3141,0.4028,10.3072,-13.7271,5.2516,-0.0977
2.28,-0.2611,0.3056,10.2728,-13.7485,5.3987,0.4713
2.3,-0.1307,0.5119,10.3197,-13.7923,6.7992,1.6239
2.32,-0.2008,0.3562,10.4304,-12.7287,10.3557,2.2533
2.34,-0.2451,0.4976,10.3157,-10.6649,8.4671,0.1993
2.36,-0.3046,0.374,10.3973,-7.4085,9.5634,2.7276
2.38,-0.1349,0.4079,10.1915,-9.9634,7.8415,2.1877
2.4,-0.2792,0.3567,10.1761,-10.3003,7.1332,4.2765
2.42,-0.147,0.4984,10.161,-7.5011,6.803,1.321
2.44,-0.0937,0.47,9.9662,1.6039,11.3708,3.5015
2.46,-0.1865,0.6005,10.0348,-3.4189,6.7003,4.9786
2.48,-0.0718,0.5181,9.8814,-2.1742,7.5515,5.7004
2.5,-0.1107,0.5461,9.743,-1.7864,6.8947,4.0248
2.52,0.0346,0.5816,9.848,0.2999,4.9582,4.2271
2.54,0.0584,0.6045,9.9586,7.4313,10.3396,2.6758
2.56,-0.0493,0.6506,10.0512,9.6772,7.9666,4.1255
2.58,0.147,0.7085,10.1163,4.8307,10.0896,3.2006
2.6,0.2294,0.6874,10.1525,10.4157,6.1608,3.2495
2.62,0.1957,0.8246,10.1076,6.2686,11.2754,3.4468
2.64,0.1799,0.78,10.3075,10.6412,5.4265,1.1533
2.66,0.1698,0.6961,10.41,11.3527,5.5131,1.6712
2.68,0.177,0.7674,10.2669,11.8494,9.2029,0.3576
2.7,0.2751,0.7763,10.3346,12.5891,7.9294,-0.1876
2.72,0.1855,0.6889,10.4454,10.2921,10.1706,-1.1953
2.74,0.158,0.7781,10.3515,8.4151,6.1169,-1.6588
2.76,0.1441,0.6363,10.2397,13.6598,7.0961,-3.3642
2.78,0.2159,0.7888,10.2834,14.1229,5.1371,-1.4323
2.8,0.1755,0.7434,10.3101,6.3305,9.6414,-4.9208
2.82,0.0671,0.6381,10.112,11.5327,7.7488,-4.1605
2.84,0.0997,0.4999,10.1088,4.2912,7.1664,-1.2375
2.86,0.1418,0.5501,10.0566,7.9713,10.1415,-3.6073
2.88,0.0929,0.5053,10.0296,1.3601,10.6822,-5.2294
2.9,-0.0763,0.4494,9.766,5.5264,7.7708,-2.728
2.92,0.0343,0.6682,9.748,1.5734,9.7794,-4.6815
2.94,-0.1502,0.5847,9.9878,-6.1584,7.1081,-4.7011
2.96,-0.0842,0.413,10.0665,-10.4078,9.7009,-4.1511
2.98,-0.0909,0.3933,10.0878,-6.3481,2.4528,-6.7769
3.0,-0.1478,0.3913,10.1763,-10.1446,9.9297,0.267
3.02,-0.0908,0.4794,10.1458,-12.6882,8.4579,-5.6243
3.04,-0.1489,0.3217,10.2811,-7.0067,6.7431,-1.8721
3.06,-0.1696,0.4062,10.2813,-10.4444,4.8672,-1.4994
3.08,-0.2236,0.2825,10.2184,-11.923,5.0591,-1.0012
3.1,-0.164,0.4807,10.3604,-11.8821,7.2903,-0.6558
3.12,-0.187,0.4256,10.3519,-9.3921,8.0197,-0.5846
3.14,-0.2376,0.2379,10.3462,-13.2422,8.2941,-1.1893
3.16,-0.1937,0.5482,10.3307,-13.3227,7.5393,2.4979
3.18,-0.207,0.315,10.2286,-9.1457,11.078,5.3898
3.2,-0.2403,0.3337,10.2078,-10.677,9.4148,-0.5665
3.22,-0.2073,0.4385,10.2253,-4.2078,7.5285,1.6916
3.24,-0.1318,0.3882,10.2659,-9.2498,8.8149,1.607
3.26,-0.0874,0.4882,9.9173,-5.3009,9.5482,4.8474
3.28,-0.1209,0.4493,9.9812,-5.3324,6.9604,3.8665
3.3,0.0694,0.4809,10.0033,-7.276,9.1069,4.5143
3.32,0.0001,0.6582,9.839,-0.0891,7.7142,5.7252
3.34,-0.0114,0.5467,9.8381,4.5367,8.0111,4.3749
3.36,-0.1594,0.4604,9.8507,2.5092,8.624,4.1325
3.38,0.0838,0.5935,10.0364,1.0834,10.6458,1.657
3.4,0.1083,0.4926,10.1754,1.805,5.2127,5.4343
3.42,0.1238,0.7288,10.2107,7.6911,8.4696,-0.3363
3.44,0.1175,0.5972,10.2099,10.8216,9.7221,2.4107
3.46,0.0397,0.6713,10.2018,10.6435,7.8249,3.1351
3.48,0.1393,0.6822,10.37,8.0206,12.4252,2.9193
3.5,0.169,0.7383,10.3336,12.6331,4.3746,2.8608
3.52,0.2113,0.6741,10.5849,13.6823,9.2717,1.7214
3.54,0.1351,0.7,10.4985,13.3023,8.4912,-0.2499
3.56,0.2078,0.5925,10.2977,15.9317,8.8044,-0.0869
3.58,0.2911,0.6681,10.4352,15.311,7.2688,-0.1383
3.6,0.2145,0.7248,10.2714,11.301,6.4217,-0.2695
3.62,0.1223,0.7559,10.1836,10.6316,10.329,-3.1536
3.64,0.1811,0.6355,10.3173,12.628,7.9828,-2.187
3.66,0.1567,0.6746,10.2573,6.191,9.4419,-2.4128
3.68,0.1535,0.6119,10.0989,5.1136,4.7792,-3.1603
3.7,0.0554,0.5576,9.9598,7.0999,9.9303,-3.9559
3.72,0.1079,0.5976,9.9608,2.2159,6.5009,-4.5439
3.74,0.1086,0.5069,9.7871,-1.112,8.8433,-4.8608
3.76,0.0391,0.5219,9.9009,-2.2388,10.0213,-1.2757
3.78,-0.0751,0.5073,9.9904,-1.9719,9.0868,-5.7114
3.8,-0.0406,0.4151,10.0643,-9.7147,9.1854,-3.6232
3.82,-0.2142,0.4397,10.1368,-12.2711,11.2796,-1.195
3.84,-0.0889,0.3477,10.1843,-10.029,8.1752,-5.688
3.86,-0.1895,0.563,10.3055,-8.2421,6.9568,-3.3662
3.88,-0.2155,0.2908,10.3166,-12.1424,6.3185,-2.6319
3.9,-0.1502,0.3165,10.2626,-10.8377,11.3126,-2.2259
3.92,-0.2298,0.4959,10.2636,-12.5674,9.5758,1.8075
3.94,-0.2562,0.5623,10.3318,-14.9393,7.8516,-0.5848
3.96,-0.2472,0.3659,10.2828,-11.614,9.9847,2.9889
3.98,-0.019,0.3674,10.4242,-12.8595,6.835,-0.287
4.0,-0.0258,0.4557,10.3671,-12.6262,6.3042,1.2028
4.02,-0.0806,0.4689,10.3228,-8.2809,6.3076,0.2648
4.04,-0.0502,0.5488,10.2108,-6.5308,9.2499,4.7012
4.06,-0.1317,0.433,10.2389,-7.0516,6.1747,1.8741
4.08,-0.0756,0.3809,10.1121,-7.598,7.3517,2.6708
4.1,-0.0048,0.5328,10.0571,0.4781,10.4486,3.9213
4.12,-0.0661,0.5456,10.0809,-4.3254,7.856,3.1251
4.14,-0.0539,0.5352,10.0192,-3.0116,6.0049,4.0944
4.16,0.0341,0.5011,9.8015,1.5838,12.8652,2.6072
4.18,0.0025,0.639,9.8437,1.4462,7.5443,4.6072
4.2,0.0884,0.5878,9.9218,0.8737,9.8113,4.6673
4.22,-0.0151,0.5244,10.0365,8.1415,8.4711,3.425
4.24,0.0944,0.6397,10.0766,8.4536,7.8769,5.1863
4.26,0.1637,0.8057,10.1147,8.2226,8.4607,1.0974
4.28,0.1038,0.7231,10.216,10.019,8.2536,3.8589
4.3,0.1243,0.7549,10.2269,11.2077,9.1759,1.4257
4.32,0.1607,0.7953,10.3368,13.1666,9.518,1.4696
4.34,0.1756,0.6593,10.3105,14.2785,9.0728,0.8464
4.36,0.1539,0.7216,10.3145,10.1785,7.1173,0.9694
4.38,0.1942,0.8473,10.3682,11.1081,10.6927,1.8945
4.4,0.1816,0.7315,10.3644,9.6014,9.8113,-2.0158
4.42,0.0574,0.5239,10.3324,10.1671,7.2094,-0.077
4.44,0.2037,0.6533,10.3512,7.9246,4.731,-2.5602
4.46,0.2921,0.7305,10.3191,8.7349,9.0872,-1.3777
4.48,0.1355,0.7763,10.1734,8.3354,9.9662,-0.7197
4.5,0.0937,0.5178,10.2292,5.8001,7.9321,-2.696
4.52,0.1807,0.685,10.0423,6.0559,10.166,-6.0222
4.54,0.0477,0.6527,10.0186,2.071,7.3836,-3.5062
4.56,-0.0059,0.519,9.9475,3.8221,6.0778,-4.7605
4.58,0.1291,0.6161,9.7668,-3.2839,9.4753,-1.6689
4.6,-0.0115,0.4737,9.8959,-1.0439,9.7081,-2.7608
4.62,-0.055,0.537,9.9022,-3.9677,6.604,-3.9374
4.64,-0.1123,0.5332,10.0379,1.0143,5.642,-4.2964
4.66,-0.1484,0.5071,10.2031,-5.8702,9.5464,-2.0
4.68,-0.1797,0.539,10.2038,-5.426,8.4657,-2.6844
4.7,-0.1463,0.3248,10.2002,-7.6514,9.8002,-2.6496
4.72,-0.2045,0.4359,10.2465,-8.4215,9.2413,-0.4472
4.74,-0.0543,0.3685,10.3226,-11.1535,10.0461,-0.548
4.76,-0.129,0.4525,10.3118,-13.492,8.3872,-1.3747
4.78,-0.1207,0.4621,10.2983,-10.9565,10.0405,0.8115
4.8,-0.1307,0.412,10.3853,-12.9291,9.2088,3.2467
4.82,-0.1181,0.5207,10.4439,-15.7094,4.9387,0.204
4.84,-0.1101,0.2952,10.3014,-9.7771,10.5747,5.028
4.86,-0.1927,0.3403,10.2706,-5.7176,8.7037,-0.3025
4.88,-0.1636,0.4928,10.2212,-10.7869,7.3263,3.6412
4.9,-0.0878,0.4095,10.2882,-10.0329,5.1233,3.7462
4.92,-0.0508,0.5399,10.1861,-5.5777,8.8866,2.5633
4.94,0.0278,0.5369,9.9802,-5.3972,11.3798,4.2084
4.96,-0.0933,0.5963,10.025,-2.5941,12.1941,2.3531
4.98,-0.1373,0.3432,9.935,-5.3873,4.8038,4.3484
5.0,0.0595,0.5744,9.8159,0.057,6.2169,5.0095
5.02,-0.142,0.585,9.8186,1.6045,8.5208,2.8117
5.04,0.0909,0.6589,9.9716,0.4688,8.5491,4.867
5.06,-0.0689,0.6102,10.0254,3.5639,10.8743,5.3302
5.08,0.0686,0.6207,10.1939,4.425,4.7593,4.2923
5.1,0.0441,0.7274,10.2413,8.2087,9.4397,2.9548
5.12,0.0561,0.6266,10.3064,10.9164,7.2752,4.0734
5.14,0.152,0.6576,10.2445,9.9622,5.7671,1.3189
5.16,0.1048,0.7167,10.3886,12.8859,10.1361,2.1683
5.18,0.2251,0.8263,10.4863,9.4352,9.4825,1.5866
5.2,0.1923,0.8371,10.3724,12.2174,6.5029,-0.7059
5.22,0.1339,0.5911,10.2263,8.0374,9.2024,-0.6688
5.24,0.2243,0.5791,10.3376,9.0783,8.6612,-5.2489
5.26,0.1457,0.7657,10.2275,11.8142,8.5006,-2.181
5.28,0.1987,0.7244,10.1051,6.5213,3.225,-3.5053
5.3,0.1232,0.5764,10.1171,12.0373,10.5703,-1.8455
5.32,0.1708,0.5745,10.118,10.9725,6.0985,-2.0067
5.34,0.2004,0.4816,10.1359,4.2294,3.8477,-2.1068
5.36,0.0634,0.6175,9.9884,4.1266,10.2882,-3.2916
5.38,-0.0446,0.6261,10.0279,3.3523,6.5878,-4.4408
5.4,0.0379,0.6,9.8366,-0.2058,6.3506,-3.9778
5.42,0.0244,0.5306,9.8655,-0.3678,11.4814,-4.073
5.44,0.0295,0.3816,9.9089,1.1718,10.9788,-6.1946
5.46,-0.0223,0.671,10.1074,-6.4287,8.7802,-3.841
5.48,0.0477,0.4387,10.0986,-5.3101,6.1454,-3.7605
5.5,0.0031,0.526,10.1565,-7.8701,6.741,-6.2574
5.52,-0.1068,0.2872,10.1917,-12.4525,6.7351,-4.9241
5.54,-0.2569,0.4565,10.2602,-7.345,8.8074,-0.2393
5.56,-0.1374,0.419,10.3973,-14.2968,8.4279,-2.349
5.58,-0.2402,0.3604,10.2982,-9.4198,8.3367,-1.8296
5.6,-0.1535,0.2607,10.3749,-10.6512,11.2758,-0.6429
5.62,-0.2958,0.3556,10.4175,-13.753,5.3191,-0.0363
5.64,-0.1546,0.4327,10.3037,-6.3626,7.5341,0.8459
5.66,-0.2857,0.4198,10.255,-10.326,5.3206,1.8798
5.68,-0.2287,0.4191,10.2363,-6.9362,8.1243,3.7646
5.7,-0.1896,0.4571,10.3419,-8.9156,6.0851,1.8863
5.72,-0.2234,0.3496,10.2058,-9.6337,5.8508,1.2522
5.74,-0.2144,0.4442,10.2109,-5.2575,6.6157,3.3663
5.76,-0.1828,0.3782,10.1298,-2.781,8.3142,3.4076
5.78,-0.0486,0.4263,10.0435,-6.4561,5.7946,4.0024
5.8,0.0358,0.6075,9.9695,-6.7202,13.8179,4.1713
5.82,-0.1365,0.6974,9.9141,-4.4181,5.4366,5.5458
5.84,0.0036,0.593,9.8286,-1.271,5.0447,3.0764
5.86,0.0546,0.6372,9.9769,4.2141,8.5634,4.5019
5.88,0.1048,0.6954,9.9889,1.705,6.5193,1.987
5.9,-0.0259,0.6757,10.0513,7.7086,4.8447,4.3727
5.92,0.0922,0.3717,10.0523,7.8888,6.324,3.4196
5.94,0.0895,0.6204,10.1359,4.8561,9.092,0.9631
5.96,0.266,0.6129,10.2916,11.8223,10.5726,3.7404
5.98,0.0745,0.5587,10.2171,6.0727,7.1,3.109
6.0,0.1584,0.6552,10.3431,13.914,9.931,1.9946
6.02,0.1307,0.6076,10.2383,11.8359,7.3138,0.8585
6.04,0.2041,0.6924,10.3544,12.674,7.9051,2.1118
6.06,0.1271,0.6827,10.3258,6.6467,8.0209,-1.8164
6.08,0.1967,0.5904,10.2824,15.0524,10.4912,3.7946
6.1,0.3563,0.7133,10.1735,12.3186,7.6266,-1.8519
6.12,0.1887,0.6627,10.3087,9.4361,7.3012,-0.7698
6.14,0.1553,0.5976,10.251,6.5503,8.7873,-4.0763
6.16,0.0235,0.5554,10.093,12.9422,8.9277,-3.1128
6.18,0.1891,0.6813,10.2336,5.7479,10.4017,-5.4431
6.2,0.0411,0.4836,10.0179,3.7355,6.2029,-3.3729
6.22,0.0558,0.7664,9.8914,-2.1135,5.9052,-3.1851
6.24,-0.0266,0.5907,9.9064,0.7006,5.8458,-2.7933
6.26,-0.1624,0.5071,9.9221,-1.9406,10.7565,-1.1781
6.28,0.0297,0.5238,9.8882,0.2529,7.2869,-3.1876
6.3,-0.0322,0.5412,9.9835,-4.5938,7.2467,-3.1626
6.32,-0.0371,0.4875,10.0389,-4.3088,6.6017,-4.8473
6.34,-0.0152,0.4243,10.1679,-8.9538,6.3266,-2.3763
6.36,-0.2184,0.5268,10.3394,-3.8434,7.2122,-5.0434
6.38,-0.1041,0.3753,10.173,-13.8185,8.1689,-2.3793
6.4,-0.2085,0.4261,10.4441,-7.4264,7.2382,-0.9751
6.42,-0.1636,0.5076,10.3704,-11.8697,9.0618,-2.5903
6.44,-0.1969,0.3091,10.4838,-9.9198,9.0947,-0.7659
6.46,-0.2036,0.4825,10.4158,-14.3736,5.6116,-0.1407
6.48,-0.1222,0.4257,10.3655,-16.1629,8.5831,1.0137
6.5,-0.2992,0.3469,10.4465,-12.6047,5.4149,2.2078
6.52,-0.1577,0.4121,10.3122,-8.7918,7.8499,4.5595
6.54,-0.1891,0.3683,10.2782,-12.3898,8.8764,3.1119
6.56,-0.2154,0.5249,10.1635,-8.5698,9.2276,5.3248
6.58,-0.0609,0.4993,10.1706,-6.8334,10.0668,3.339
6.6,0.0169,0.6032,10.1052,-5.4089,9.3377,3.2139
6.62,-0.1166,0.4487,10.026,-0.0673,6.9403,5.1633
6.64,-0.0019,0.6331,9.921,-0.0287,11.7264,4.602
6.66,0.0063,0.5486,9.8951,-1.7511,7.0764,3.3661
6.68,-0.0217,0.6092,9.8615,0.0123,8.2855,2.6561
6.7,0.0142,0.4219,9.9554,3.045,8.4346,3.7504
6.72,-0.0002,0.4597,10.0139,3.3634,8.6491,3.8748
6.74,0.1672,0.7146,10.0862,4.6147,9.3819,2.3663
6.76,-0.0609,0.5342,10.2241,7.4872,6.7258,2.0314
6.78,0.3212,0.8048,10.2208,11.4095,8.347,0.6
6.8,0.3276,0.6232,10.2677,7.817,7.6679,2.263
6.82,0.1969,0.8051,10.294,12.7557,7.3953,2.3151
6.84,0.3239,0.7312,10.3283,11.7235,9.5704,0.3849
6.86,0.1965,0.6974,10.4,9.5932,8.6127,1.6127
6.88,0.2434,0.603,10.3747,8.542,8.7519,-0.453
6.9,0.2146,0.8729,10.352,14.8806,8.6909,-1.4267
6.92,0.084,0.7392,10.3747,9.4929,7.6452,-0.7927
6.94,0.1364,0.6206,10.3441,8.8143,8.3819,-0.3701
6.96,0.2632,0.7159,10.3376,12.4415,6.4763,-3.162
6.98,0.1996,0.561,10.3186,8.1048,11.2897,-2.8552
7.0,0.1285,0.7169,10.062,10.4843,7.106,-4.2184
7.02,-0.0556,0.6374,10.1247,5.4139,8.1368,-5.1784
7.04,0.0938,0.4687,9.9813,8.6602,9.9724,-5.2667
7.06,0.0257,0.4933,9.8498,-0.1543,8.592,-3.5273
7.08,0.0135,0.4105,9.7576,-0.1719,6.0014,-7.0517
7.1,-0.019,0.4823,9.9166,-3.6827,8.8876,-2.9129
7.12,-0.1094,0.5662,9.9359,-0.5189,10.2478,-5.9617
7.14,-0.0107,0.5251,9.9874,-4.23,8.3299,-6.5389
7.16,-0.1482,0.4278,10.1623,-9.0657,3.6785,-4.7901
7.18,-0.2277,0.5939,10.2101,-6.2623,4.198,-2.8825
7.2,-0.1738,0.6055,10.2737,-6.8087,10.5849,-1.6024
7.22,-0.2917,0.1464,10.2728,-11.6124,9.2788,2.628
7.24,-0.2137,0.2728,10.3681,-8.4093,10.1237,-0.0881
7.26,-0.2102,0.3557,10.2118,-12.7736,8.1618,0.0235
7.28,-0.183,0.3191,10.4257,-10.6575,11.7103,1.4637
7.3,-0.2785,0.4161,10.3747,-14.7617,3.7847,0.1075
7.32,-0.22,0.4499,10.3863,-11.0101,10.4922,0.2181
7.34,-0.2476,0.2406,10.4663,-14.5151,11.0936,1.6941
7.36,0.0194,0.392,10.4159,-7.9025,8.8736,0.4103
7.38,-0.1796,0.405,10.2232,-9.7054,6.4905,3.1062
7.4,-0.1259,0.4585,10.2521,-5.461,9.8002,3.2494
7.42,-0.1329,0.485,10.1279,-8.9971,7.2867,2.5605
7.44,-0.024,0.5086,10.0226,-9.4435,10.5444,5.0391
7.46,-0.0433,0.4394,9.9115,-6.476,5.0807,2.5981
7.48,-0.0136,0.6298,9.8764,-3.214,9.8806,3.4049
7.5,0.0022,0.4863,9.7906,1.8529,4.142,2.1045
7.52,0.0136,0.6276,9.8582,-0.5878,7.1857,2.797
7.54,0.0036,0.6477,9.9597,1.1612,6.2353,3.1681
7.56,0.0032,0.6236,9.8919,3.8949,9.1135,7.1843
7.58,0.0885,0.6961,10.1476,10.7119,9.7145,0.9728
7.6,0.1155,0.5614,10.1315,9.5381,9.8925,1.8918
7.62,0.0205,0.6875,10.2699,6.7038,6.6308,4.5795
7.64,0.161,0.6544,10.3579,9.878,8.9158,1.5975
7.66,0.1594,0.8015,10.2225,12.8684,5.6944,4.1653
7.68,0.0957,0.8345,10.2603,7.8444,6.5213,3.1907
7.7,0.2064,0.7166,10.3783,15.6912,8.2826,-3.5783
7.72,0.1167,0.5219,10.3018,12.5707,7.6908,1.2597
7.74,0.2526,0.7129,10.4768,11.8555,9.9675,-3.0518
7.76,0.21,0.7525,10.3873,8.4259,8.3714,-2.6695
7.78,0.1648,0.5863,10.3453,6.4667,7.1302,-1.3436
7.8,0.2381,0.6888,10.1801,8.4642,6.2733,-4.0179
7.82,0.0534,0.6257,10.1191,5.6953,7.9622,-1.2508
7.84,0.235,0.5197,10.1869,7.3129,9.7792,-4.7052
7.86,0.1943,0.5927,10.0339,0.1952,10.7543,-4.6058
7.88,0.0241,0.6119,10.0265,7.2344,6.7913,-1.305
7.9,0.0141,0.5844,9.8994,5.7084,3.8754,-3.6751
7.92,0.0518,0.5763,9.851,3.1478,11.2263,-2.4334
7.94,-0.0313,0.6595,9.95,-3.0654,10.2294,-4.6773
7.96,0.0139,0.505,9.9659,-3.295,8.5172,-6.3477
7.98,-0.059,0.3851,10.0846,-7.8452,12.8088,-3.1655
8.0,-0.1379,0.3931,10.193,-9.8278,7.5257,-1.5866
8.02,-0.1147,0.326,10.2143,-5.2868,10.1785,-0.6982
8.04,-0.1332,0.4185,10.2803,-7.5706,8.5246,-5.3758
8.06,-0.0806,0.3281,10.284,-12.0161,3.8568,-2.3188
8.08,-0.1304,0.2838,10.3513,-12.5618,6.5091,-2.6814
8.1,-0.1222,0.7132,10.2588,-15.2105,6.3226,1.6958
8.12,-0.2395,0.569,10.382,-15.1547,10.8129,-0.1386
8.14,-0.1023,0.4421,10.3964,-8.4612,7.8536,-0.0014
8.16,-0.2749,0.3078,10.2771,-12.7177,5.8364,-0.0665
8.18,-0.1634,0.4112,10.3812,-11.7136,5.3738,0.0974
8.2,-0.0569,0.4302,10.2582,-8.3856,8.0487,3.1279
8.22,-0.1442,0.5555,10.22,-10.2094,5.4954,2.9278
8.24,-0.0883,0.4821,10.1613,-10.7772,6.2127,5.3008
8.26,-0.138,0.4614,10.0911,-11.0262,7.9297,2.4186
8.28,-0.0145,0.6318,9.9993,-4.8854,8.4734,1.6099
8.3,0.0569,0.5863,9.8869,-0.8276,5.5342,3.1605
8.32,-0.0639,0.5426,9.803,-0.6709,6.8489,4.5876
8.34,0.0578,0.7107,9.8697,-1.2481,8.202,4.3975
8.36,-0.0534,0.67,9.9531,3.7186,7.8092,2.0889
8.38,0.0434,0.6023,9.7987,1.8735,8.8299,4.4025
8.4,-0.0031,0.5802,9.9781,10.4598,8.9869,5.3486
8.42,0.1437,0.6378,10.1962,10.0796,10.5542,-0.8764
8.44,0.2253,0.7646,10.285,7.1868,6.1184,3.0159
8.46,0.2213,0.6803,10.1219,9.9822,7.4516,1.9117
8.48,0.2458,0.6923,10.3569,10.2745,7.5168,1.9837
8.5,0.2192,0.7972,10.3543,8.8699,6.3537,4.5975
8.52,0.274,0.7982,10.373,13.719,9.4426,0.4727
8.54,0.1026,0.6331,10.3528,11.287,7.7225,1.3186
8.56,0.1707,0.6672,10.4363,7.216,11.7804,-1.1233
8.58,0.1127,0.7792,10.4249,13.8795,11.3573,-1.0147
8.6,0.1334,0.6075,10.242,10.9158,5.1742,-0.2201
8.62,0.2186,0.6437,10.2366,7.5291,6.7308,-1.3187
8.64,0.1255,0.6755,10.24,4.8871,6.1129,0.712
8.66,0.1785,0.5991,10.1675,6.9009,9.0871,-4.3431
8.68,-0.0744,0.543,10.0661,9.6531,7.8302,-2.3172
8.7,0.0316,0.464,10.0698,7.8519,10.1349,-6.2022
8.72,-0.0127,0.5113,9.9237,3.2252,9.3483,-0.4912
8.74,-0.0173,0.6334,9.7855,3.9715,8.2717,-5.5111
8.76,-0.0353,0.5774,9.8971,0.4322,6.9015,-5.3935
8.78,-0.0836,0.5313,9.9783,-5.0141,7.8438,-4.1611
8.8,-0.2287,0.492,10.0307,-8.22,10.1464,-4.7625
8.82,-0.111,0.586,10.1369,-7.6528,7.6163,-4.1723
8.84,-0.0999,0.3285,10.2226,-6.8638,8.7177,-4.3924
8.86,-0.1416,0.294,10.2781,-11.6869,7.3955,-1.4083
8.88,-0.243,0.3777,10.2079,-12.9498,6.2513,-0.5887
8.9,-0.1309,0.3884,10.3034,-11.2,9.2828,-1.9031
8.92,-0.1766,0.4429,10.4756,-10.7429,8.5772,1.2206
8.94,-0.3277,0.4275,10.3159,-16.0788,9.89,-0.0069
8.96,-0.1777,0.3864,10.4092,-13.6945,10.7016,-0.3024
8.98,-0.2275,0.459,10.3056,-9.9213,8.8473,0.7327
9.0,-0.1121,0.549,10.243,-11.1423,6.2909,1.2426
9.02,-0.1698,0.3149,10.3317,-9.9903,9.0847,0.3949
9.04,-0.1637,0.4409,10.3334,-10.4558,8.4407,1.7273
9.06,-0.0957,0.3584,10.1582,-8.2082,7.8921,0.412
9.08,-0.0597,0.6142,10.1672,-9.4851,11.6968,5.36
9.1,-0.1122,0.4821,10.1741,-5.9431,5.2609,4.8355
9.12,0.0116,0.4724,9.9727,-1.4307,7.3193,0.3519
9.14,0.0101,0.4967,9.863,-7.2413,7.857,2.3135
9.16,-0.0811,0.5505,9.7779,0.7782,6.7318,4.0829
9.18,-0.0156,0.6035,9.9938,1.7607,9.3795,2.7145
9.2,0.1033,0.5639,9.9149,4.4347,11.7878,5.8661
9.22,0.111,0.694,10.0989,6.6166,9.6882,4.0457
9.24,-0.0024,0.7463,10.0717,9.6166,7.6329,3.7745
9.26,0.1888,0.6754,10.2049,5.0691,9.0056,0.4389
9.28,0.1471,0.7606,10.0882,6.0292,8.982,2.9775
9.3,0.1579,0.6851,10.2623,7.7368,8.9368,1.767
9.32,0.1185,0.6312,10.2146,13.8399,5.2519,2.4089
9.34,0.2811,0.5866,10.2954,12.5998,5.0548,-1.5103
9.36,0.3036,0.7327,10.3711,12.9615,7.0675,-0.6131
9.38,0.1453,0.5416,10.2274,16.2786,3.4802,0.3397
9.4,0.1786,0.6394,10.2397,10.4724,9.1267,0.1175
9.42,0.082,0.5853,10.4637,9.2884,9.436,0.8929
9.44,0.1125,0.6299,10.3479,7.0804,8.0869,-1.7702
9.46,0.1566,0.686,10.3354,10.7853,8.1488,0.1794
9.48,0.2088,0.5267,10.1759,11.2929,7.4467,-5.5281
9.5,0.0342,0.5323,10.1402,5.8046,9.2455,-4.2981
9.52,0.0617,0.4746,10.021,4.8223,7.426,-2.1663
9.54,0.2182,0.471,9.9144,5.413,8.2822,-3.6416
9.56,0.1485,0.5254,9.872,0.1243,7.2285,-2.914
9.58,0.0258,0.6245,9.8521,-3.4645,6.2937,-4.4379
9.6,0.0984,0.4887,9.9012,2.9845,4.7332,-5.5358
9.62,0.0269,0.3993,9.9591,-2.1611,6.9649,-0.8633
9.64,-0.1231,0.5163,9.9961,-5.9439,5.8142,-1.2549
9.66,-0.0686,0.6609,10.101,-3.8569,6.5025,-5.1519
9.68,-0.0258,0.437,10.1801,-11.5148,8.1413,-1.0433
9.7,-0.1253,0.489,10.2247,-8.1959,8.7759,-2.1088
9.72,-0.1768,0.3922,10.2584,-9.0313,6.8677,-2.8149
9.74,-0.1218,0.5358,10.3152,-13.6784,6.2202,-0.9614
9.76,-0.1469,0.4026,10.3665,-13.4708,6.6863,-2.8003
9.78,-0.1456,0.3991,10.2821,-12.3478,7.0271,-2.9219
9.8,-0.1836,0.3611,10.3043,-10.135,4.2096,-0.1753
9.82,-0.0905,0.4317,10.3848,-9.57,8.2392,1.06
9.84,-0.1146,0.465,10.2899,-11.464,9.1106,-1.6047
9.86,-0.1506,0.6247,10.4249,-11.5655,7.4695,1.6865
9.88,-0.0993,0.3543,10.2941,-4.981,8.9442,1.8948
9.9,-0.0487,0.3301,10.244,-8.299,4.7163,6.3839
9.92,-0.1634,0.3912,10.1062,-9.922,6.9152,7.3209
9.94,-0.1376,0.5731,10.0352,-3.8674,8.4248,4.1544
9.96,-0.2273,0.511,9.9427,-5.0675,6.7713,1.4722
9.98,-0.0608,0.5924,9.9218,-0.7102,5.9083,3.6026
10.0,0.0214,0.5604,9.8485,2.0032,7.0148,4.6903
10.02,0.0623,0.5456,9.8702,2.6001,9.1001,1.9112
10.04,0.1679,0.7263,9.9905,2.9894,6.1488,3.3401
10.06,0.2679,0.5325,10.0515,6.4585,7.6708,3.197
10.08,0.1711,0.4114,10.0866,7.4556,8.5213,3.1989
10.1,0.1625,0.7477,10.0915,9.325,7.7704,0.44
10.12,0.1648,0.7111,10.2052,11.512,7.3055,4.1545
10.14,0.1372,0.6533,10.2834,9.329,7.3124,2.236
10.16,0.1401,0.6261,10.3776,6.2616,11.1212,1.6487
10.18,0.2358,0.7525,10.2981,10.1335,7.6393,1.4676
10.2,0.2078,0.7572,10.3742,9.3634,10.0343,0.9398
10.22,0.2382,0.5944,10.346,7.3116,7.1003,-0.2348
10.24,0.1875,0.6277,10.3721,8.6023,10.5697,-0.2149
10.26,0.1273,0.7203,10.2729,14.9289,5.1086,-0.8047
10.28,0.1385,0.4956,10.2504,7.6471,6.8055,-2.9692
10.3,0.1593,0.768,10.1584,8.064,8.4555,-3.2003
10.32,0.0639,0.8175,10.1811,7.2521,8.8811,-6.1762
10.34,0.1637,0.6265,10.1808,5.4563,9.8153,-1.4942
10.36,0.0714,0.6375,10.15,4.5503,7.215,-5.6783
10.38,-0.1442,0.4837,9.9664,5.2721,7.9057,-6.2225
10.4,0.1024,0.6117,9.8958,4.1518,6.7089,-3.5903
10.42,-0.0858,0.4383,9.8544,-1.7369,10.1134,-4.4084
10.44,-0.0372,0.4336,9.9479,-1.4353,7.673,-3.4173
10.46,0.0233,0.4364,10.0001,-7.9972,5.0499,-5.9508
10.48,-0.1054,0.2601,10.0979,-4.4377,8.5745,-5.4234
10.5,-0.0336,0.4934,10.0568,-5.6247,7.1971,-3.9552
10.52,0.0256,0.5292,10.1235,-1.5355,6.0691,-0.9103
10.54,-0.1683,0.5516,10.3231,-11.3661,9.4585,-5.3205
10.56,-0.1665,0.3874,10.2385,-11.5572,6.783,-0.8052
10.58,-0.149,0.4638,10.3677,-9.2993,6.1899,-3.927
10.6,-0.1794,0.3611,10.3085,-12.4229,11.5623,-0.2327
10.62,-0.2141,0.3209,10.4147,-13.6941,6.9533,-2.2037
10.64,-0.2,0.4301,10.2991,-11.344,5.2727,0.4818
10.66,-0.2732,0.4724,10.266,-11.1831,8.5392,0.0169
10.68,-0.2249,0.4834,10.1948,-10.4245,6.4912,1.6257
10.7,-0.1798,0.3174,10.2537,-6.7521,3.7712,2.898
10.72,-0.0545,0.4261,10.2471,-9.2977,6.7122,4.6337
10.74,-0.1833,0.3008,10.151,-12.5228,7.1733,3.3198
10.76,-0.1174,0.375,10.1159,-1.7339,8.7772,4.343
10.78,-0.1305,0.5055,10.0112,-2.751,7.8793,1.8669
10.8,-0.0783,0.5808,9.8044,-2.6911,5.4102,5.869
10.82,-0.0562,0.538,9.7693,-2.6073,5.5331,6.2269
10.84,0.006,0.5398,9.8162,1.6737,10.221,3.6728
10.86,0.0399,0.4463,9.9132,5.1875,5.492,3.0405
10.88,0.0626,0.6485,9.9687,1.8761,6.5293,1.3127
10.9,0.1337,0.4903,10.0612,6.8792,8.1713,0.2988
10.92,0.1243,0.577,10.1637,10.442,7.1723,1.3582
10.94,0.0524,0.75,10.1065,8.6032,6.7697,1.9187
10.96,0.1449,0.6859,10.1973,10.9207,6.508,0.3933
10.98,0.065,0.6915,10.2438,12.7083,5.8613,3.616
11.0,0.1051,0.782,10.275,12.8508,6.9201,0.3731
11.02,0.0537,0.6806,10.2577,16.6232,11.9616,0.4532
11.04,0.3139,0.6237,10.4456,15.0085,8.5491,1.1958
11.06,0.1762,0.6441,10.306,11.9322,7.8922,-0.1801
11.08,0.1326,0.682,10.3483,10.0455,9.7513,-3.7162
11.1,0.2393,0.725,10.2641,11.1412,8.233,-0.017
11.12,0.2631,0.8889,10.2907,8.4612,3.4409,-2.1172
11.14,0.1053,0.644,10.338,5.5283,5.4148,-2.1154
11.16,0.1583,0.5626,10.1196,6.4693,6.9085,-4.6232
11.18,0.1084,0.6047,10.1853,10.7337,7.1656,-4.0201
11.2,0.0576,0.6097,10.0735,7.6103,7.682,-5.3015
11.22,0.0626,0.5941,9.8496,5.6297,7.6198,-4.4589
11.24,-0.0366,0.5262,9.8695,0.2538,6.1989,-4.4242
11.26,-0.0752,0.5834,9.9072,2.1854,12.7695,-4.6048
11.28,-0.0175,0.5873,9.8861,-4.3386,7.3245,-4.4316
11.3,0.035,0.494,10.0462,-2.9839,4.1362,-3.2824
11.32,0.0386,0.4021,10.0923,-6.7106,7.3231,-4.5663
11.34,-0.1619,0.4197,10.0867,-6.0605,9.0832,-4.9727
11.36,-0.1009,0.3283,10.1968,-7.1742,9.6711,-2.3944
11.38,-0.2706,0.487,10.3585,-6.0255,6.5309,0.8999
11.4,-0.2393,0.2104,10.332,-8.9092,6.829,-0.5354
11.42,-0.1708,0.4357,10.3848,-8.1629,5.7851,-0.2837
11.44,-0.2677,0.4899,10.3592,-7.8097,10.4811,-0.2655
11.46,-0.1926,0.4558,10.3242,-6.4756,8.201,-3.1257
11.48,-0.2232,0.3911,10.285,-9.481,7.1713,-2.0242
11.5,-0.2363,0.2919,10.2966,-9.5249,7.9703,3.7199
11.52,-0.0505,0.5261,10.243,-10.2324,3.0369,1.9308
11.54,-0.1456,0.4362,10.2305,-5.7261,10.323,0.8817
11.56,-0.1574,0.462,10.2149,-8.1895,5.297,2.4665
11.58,-0.0922,0.4929,10.0478,-6.2104,7.0673,2.9795
11.6,-0.1634,0.4768,10.0603,-7.9979,7.6946,2.4183
11.62,-0.1045,0.5025,9.9598,-1.7971,6.4617,2.2782
11.64,-0.1499,0.5712,9.8488,-5.0279,5.6674,1.8499
11.66,0.0649,0.5067,9.7931,-2.9753,9.7526,5.5872
11.68,-0.0925,0.5519,9.8835,-1.121,5.1895,3.0809
11.7,0.1232,0.4904,9.9918,7.5277,7.2515,4.9192
11.72,0.1043,0.7091,10.0685,2.277,5.0562,4.0574
11.74,0.0055,0.6304,10.041,2.3905,8.8251,2.7723
11.76,0.1135,0.7544,10.0747,4.2569,9.3603,1.6122
11.78,0.1243,0.5439,10.143,8.8277,8.387,1.8045
11.8,0.1297,0.7298,10.3123,7.1027,6.3026,2.6699
11.82,0.2492,0.6826,10.2775,8.1086,7.9668,4.1375
11.84,0.1539,0.7485,10.3506,6.5595,8.6725,3.7442
11.86,0.166,0.7544,10.409,9.5684,12.0114,-1.4049
11.88,0.143,0.6931,10.4094,13.4815,7.4605,-2.4119
11.9,0.2526,0.7946,10.3805,13.8082,9.2052,-1.6864
11.92,0.1717,0.7859,10.3426,14.178,7.5083,-0.3809
11.94,0.1732,0.6885,10.1793,10.5034,6.693,1.1142
11.96,0.2221,0.6294,10.255,7.9539,5.5042,-3.4429
11.98,0.0667,0.7953,10.1818,9.4842,10.0932,-2.0989
12.0,0.1469,0.6,10.182,3.4611,8.9954,-3.2983
12.02,0.0448,0.633,10.1412,4.4182,7.5343,-5.5975
12.04,0.0288,0.6762,9.9645,1.8577,8.4563,-4.9023
12.06,0.1036,0.5321,10.0061,1.5262,8.5888,-2.6376
12.08,-0.0325,0.4548,9.8452,-4.7031,10.0669,-5.9689
12.1,-0.0408,0.4158,9.7969,0.6346,6.4038,-4.7031
12.12,-0.093,0.5048,9.9472,-0.7572,9.7932,-1.4966
12.14,0.0402,0.3483,9.9929,-1.6015,9.3538,-2.831
12.16,-0.1916,0.5353,10.069,-7.697,11.0775,-3.6774
12.18,-0.0436,0.4238,10.2304,-12.413,8.0594,0.187
12.2,-0.2441,0.4674,10.2255,-8.4431,10.7934,-3.7388
12.22,-0.1551,0.3508,10.2874,-14.8645,4.8825,-0.5728
12.24,-0.1442,0.402,10.3227,-11.3505,8.1781,-1.9015
12.26,-0.2028,0.4835,10.3321,-17.8639,9.793,-6.0458
12.28,-0.1758,0.304,10.3834,-12.3525,5.2618,-3.5555
12.3,-0.0609,0.387,10.353,-11.9852,9.2224,1.8984
12.32,-0.1905,0.6188,10.339,-12.2872,3.2338,0.7586
12.34,-0.143,0.2268,10.3975,-11.3457,7.59,-0.2605
12.36,-0.1933,0.3951,10.2734,-8.455,7.9902,1.4841
12.38,-0.1949,0.2493,10.1097,-11.6215,9.1991,4.7699
12.4,-0.087,0.4724,10.1688,-7.2738,4.524,3.723
12.42,-0.1291,0.5761,10.1476,-3.8584,6.9519,1.4433
12.44,0.0868,0.4741,10.054,-8.1111,7.8455,0.896
12.46,-0.092,0.3515,9.9603,-8.1795,6.4419,5.5368
12.48,-0.0611,0.5567,9.9027,0.4198,9.3032,4.478
12.5,0.0913,0.5908,9.7865,-2.3646,6.7698,3.898
12.52,-0.0142,0.4795,9.9158,3.6838,9.8656,2.3852
12.54,0.1525,0.6833,9.9457,0.2185,7.778,4.348
12.56,0.1738,0.6208,9.9666,7.4479,7.4553,2.817
12.58,-0.0077,0.6517,10.0501,3.1671,6.8149,2.1532
12.6,0.2316,0.6923,10.2365,8.5225,7.5205,2.3963
12.62,0.2102,0.6417,10.1538,7.7365,8.8375,4.6962
12.64,0.1577,0.6961,10.1992,10.8958,4.3235,0.2604
12.66,0.22,0.693,10.3696,9.9946,9.5105,0.0573
12.68,0.1908,0.7027,10.1963,12.1154,10.1941,1.2204
12.7,0.2461,0.6924,10.3816,13.8078,5.4017,0.7738
12.72,0.1846,0.8415,10.4086,11.2593,8.8367,1.8368
12.74,0.1913,0.6781,10.3169,13.9144,10.5803,-3.408
12.76,0.2382,0.7575,10.2816,12.5019,9.5939,-0.7114
