time_s,Ax,Ay,Az,Gx,Gy,Gz
0.0,0.0905,0.5145,9.7921,0.3251,10.515,5.3005
0.02,0.054,0.4461,9.8531,4.9324,7.9516,4.966
0.04,0.0663,0.5822,9.9308,-0.9355,4.0279,3.1097
0.06,0.0597,0.6746,10.0234,4.246,6.7904,3.9615
0.08,0.044,0.6541,10.1316,8.4483,9.4199,4.8569
0.1,0.2295,0.4721,10.1205,9.5098,8.2204,2.5043
0.12,0.0004,0.6708,10.2217,14.1939,10.0724,2.9377
0.14,0.0446,0.7631,10.1683,11.5934,5.5769,3.437
0.16,0.159,0.7203,10.2879,13.6848,10.3673,0.2298
0.18,0.2637,0.7927,10.4164,11.8672,6.8444,1.367
0.2,0.1733,0.7065,10.4113,13.2354,6.0884,1.3711
0.22,0.1888,0.6241,10.3732,12.6415,6.3687,0.5729
0.24,0.2759,0.6532,10.3382,14.8973,8.2684,-2.3539
0.26,0.2203,0.7203,10.309,10.6643,8.9679,-1.3105
0.28,0.0949,0.7148,10.3055,9.9361,9.6876,-3.0218
0.3,0.1008,0.6148,10.2403,6.2132,7.1981,-1.4621
0.32,0.1502,0.6147,10.1957,8.4646,11.4741,-2.3128
0.34,0.1159,0.5565,10.0718,4.6841,9.1544,-4.481
0.36,0.0948,0.6809,10.0892,4.5421,8.0682,-3.5228
0.38,0.028,0.5482,10.0328,5.0341,8.4732,-5.3652
0.4,0.0718,0.5999,9.9812,0.3401,8.988,-1.4002
0.42,0.1243,0.5194,9.7587,-4.2316,7.4924,-3.5587
0.44,-0.0161,0.4254,9.9045,-1.8505,7.7811,-3.2063
0.46,0.0397,0.5294,9.8495,-2.3278,6.4741,-4.3198
0.48,0.0644,0.4113,10.0131,-6.3086,9.7547,-2.4139
0.5,-0.0972,0.3949,10.1008,-8.5561,6.7098,-1.6914
0.52,-0.2485,0.5497,10.1784,-9.0303,9.3434,-4.3389
0.54,-0.1933,0.3972,10.3399,-9.2873,8.863,-5.3241
0.56,-0.1582,0.4155,10.2382,-8.9952,9.267,-0.2295
0.58,-0.0863,0.2273,10.3789,-9.7216,7.2458,-0.4958
0.6,-0.1459,0.5196,10.3984,-12.8087,12.7095,-0.1999
0.62,-0.117,0.4663,10.2835,-10.5597,8.1125,-2.0342
0.64,-0.1913,0.4029,10.3702,-15.2166,7.2275,-3.1571
0.66,-0.2281,0.3437,10.3696,-13.6154,7.8746,-0.6233
0.68,-0.3038,0.4406,10.3252,-14.8728,7.5221,0.9402
0.7,-0.2974,0.5452,10.2508,-7.6408,8.6811,0.5457
0.72,0.0183,0.5296,10.2622,-8.3232,6.9971,4.9243
0.74,0.0318,0.4784,10.2444,-11.2506,4.9909,0.8397
0.76,-0.1037,0.5392,10.16,-3.5174,7.4062,2.7212
0.78,-0.0809,0.5551,10.1682,-6.9436,10.2275,2.8325
0.8,-0.0723,0.526,10.0449,-3.5163,7.691,4.1416
0.82,0.0326,0.5006,9.7783,-1.5736,4.916,2.7916
0.84,0.0372,0.62,9.7919,-5.0944,10.9367,4.2489
0.86,0.0338,0.5388,9.9094,3.5436,8.6183,5.0218
0.88,0.0093,0.6059,9.9961,3.1182,8.5115,4.0773
0.9,0.0275,0.5779,10.0567,6.1929,9.4904,2.8375
0.92,0.0936,0.6794,10.1106,6.8893,10.5275,4.0371
0.94,0.1754,0.6703,10.2332,11.2073,7.474,4.5329
0.96,0.1465,0.7053,10.213,10.3781,4.5009,1.6908
0.98,0.0782,0.7405,10.2824,11.2078,6.9389,0.5784
1.0,0.0817,0.7939,10.2103,11.8536,9.8592,3.2747
1.02,0.2948,0.6664,10.342,12.3813,8.394,-1.2764
1.04,0.2568,0.6745,10.3628,12.9393,9.2274,-0.2299
1.06,0.1681,0.7226,10.3129,13.1904,8.7091,-0.2432
1.08,0.1424,0.5383,10.4088,11.3424,6.9635,-4.3654
1.1,0.2594,0.5719,10.2783,10.5801,6.291,-1.5763
1.12,0.1451,0.8181,10.231,10.9562,5.0074,-1.0251
1.14,0.0531,0.612,10.1825,6.6194,7.8967,-2.5884
1.16,0.1604,0.5745,10.3115,8.7875,8.1731,-5.1289
1.18,0.2525,0.6892,10.0442,6.4469,7.0321,-3.43
1.2,-0.0727,0.6394,9.9037,2.2707,5.2898,-3.0638
1.22,0.0773,0.6037,10.029,0.7959,8.5875,-3.6544
1.24,0.0913,0.5656,9.7166,2.3747,12.6925,-2.2302
1.26,0.0607,0.5555,9.8567,-2.2646,7.7476,-2.0142
1.28,-0.0053,0.6059,9.862,1.1518,7.2171,-1.9926
1.3,-0.0195,0.4068,9.9318,-6.6795,10.3737,-3.4226
1.32,-0.2211,0.6846,10.1416,-9.6922,10.8581,-4.6685
1.34,-0.2367,0.4603,10.2041,-5.4632,3.2895,-3.0244
1.36,0.0056,0.4362,10.3178,-9.426,9.0734,-1.2136
1.38,-0.1318,0.5573,10.233,-10.1837,6.5888,-1.6777
1.4,-0.263,0.3767,10.4032,-11.1799,9.7529,-0.8172
1.42,-0.168,0.3877,10.342,-10.6394,4.0517,-3.4553
1.44,-0.2626,0.3217,10.3374,-14.8928,10.1998,0.4939
1.46,-0.2731,0.3646,10.3552,-12.0815,8.1349,-0.5612
1.48,-0.1819,0.3359,10.329,-16.8273,9.5601,1.6286
1.5,-0.1771,0.3459,10.3341,-10.3805,9.2491,0.3604
1.52,-0.0786,0.4294,10.397,-9.5085,5.8058,4.4122
1.54,-0.1839,0.4092,10.2709,-10.076,5.1057,0.6455
1.56,-0.2626,0.4995,10.1796,-7.8293,8.8243,1.2952
1.58,-0.158,0.4865,9.9959,-9.32,8.1724,3.3374
1.6,-0.1464,0.5287,10.0962,-8.7428,6.772,4.144
1.62,-0.1632,0.3942,9.9818,-4.6704,9.3114,3.4057
1.64,0.0722,0.6181,9.901,-4.9871,6.8835,2.5812
1.66,-0.0205,0.6166,9.8332,-1.4185,7.673,1.6579
1.68,0.0548,0.4057,9.9457,0.3567,8.1882,5.1009
1.7,0.1279,0.5463,9.9628,2.9323,7.9599,2.7268
1.72,-0.1107,0.6337,9.9247,8.7247,6.8086,2.1209
1.74,0.0448,0.7122,10.1122,4.0921,6.6348,4.715
1.76,0.216,0.717,10.1679,5.0967,10.6527,2.36
1.78,0.1764,0.6957,10.2436,7.2142,4.1864,0.8154
1.8,0.0026,0.5718,10.3598,9.2214,5.0765,2.6944
1.82,0.0824,0.5809,10.2754,10.5626,8.2861,4.6917
1.84,0.2543,0.676,10.3926,14.2438,6.3342,-0.6676
1.86,0.1354,0.7571,10.2652,13.8378,10.6284,1.4619
1.88,0.1514,0.6426,10.4052,8.2558,10.8512,0.1286
1.9,0.2169,0.8209,10.4008,13.9695,6.4962,1.407
1.92,0.2772,0.6994,10.3486,13.1486,8.8818,0.7674
1.94,0.0973,0.7735,10.2755,11.5093,12.4118,-0.4739
1.96,0.3787,0.637,10.3058,12.1184,8.0172,-3.8109
1.98,0.0148,0.8784,10.1553,12.6465,7.0047,-5.486
2.0,0.141,0.6174,10.2046,8.7218,5.9912,-1.4996
2.02,0.0484,0.6386,10.1312,6.291,4.7573,-2.6922
2.04,0.066,0.7027,10.0525,2.8004,9.485,-6.3679
2.06,0.1406,0.5167,9.8763,-2.963,5.6825,-3.5788
2.08,0.062,0.6307,9.8307,7.915,9.6626,-2.343
2.1,-0.16,0.6086,9.909,-2.3666,7.1811,-1.1209
2.12,-0.1544,0.5122,10.0063,0.0023,9.5855,-3.7092
2.14,-0.1109,0.5317,9.9547,-4.051,8.4253,-2.7687
2.16,-0.0347,0.4026,10.1721,-4.7789,13.5916,-7.6461
2.18,-0.1125,0.3919,10.2618,-7.691,5.4933,-2.4717
2.2,-0.2189,0.3519,10.3155,-6.81,14.6442,0.2165
2.22,-0.1801,0.402,10.1992,-14.4306,9.1157,0.0373
2.24,-0.2065,0.4147,10.2939,-10.8474,8.8526,-0.2711
2.26,-0.1622,0.4036,10.3564,-12.3541,5.5617,-2.0544
2.28,-0.1333,0.3626,10.3457,-12.5857,7.6021,-0.0107
2.3,-0.1801,0.1777,10.4342,-8.7202,8.9998,-0.2714
2.32,-0.1981,0.1924,10.3356,-10.0984,2.6195,-0.3921
2.34,-0.1474,0.4885,10.3207,-10.0652,12.7578,1.1484
2.36,-0.1739,0.4798,10.3101,-10.7466,9.0151,4.7857
2.38,-0.1719,0.5382,10.2526,-9.0171,8.7355,2.9119
2.4,0.051,0.4432,10.2681,-7.668,11.11,1.9298
2.42,0.0759,0.5028,10.2436,-8.3729,6.4309,1.6777
2.44,-0.0765,0.5752,10.0145,-6.3743,8.1859,2.0063
2.46,-0.1021,0.382,10.1227,-2.3548,11.1111,2.1151
2.48,-0.1167,0.3965,9.9386,2.9549,11.1459,4.6372
2.5,0.0713,0.5409,9.9603,0.4798,6.2136,4.4036
2.52,0.131,0.6204,10.0378,-2.2233,8.6275,5.1027
2.54,0.0389,0.6055,9.9447,4.7029,7.6974,6.517
2.56,-0.0569,0.8331,10.1113,3.3655,10.3212,6.0595
2.58,0.128,0.6472,10.2178,10.8623,7.4963,4.9064
2.6,0.1828,0.6137,10.1572,7.7685,7.1556,3.5164
2.62,0.2513,0.6185,10.2048,7.8122,6.3689,3.3774
2.64,0.1718,0.8488,10.2274,15.7923,9.5563,1.8703
2.66,0.1159,0.6308,10.2689,8.783,8.857,0.8462
2.68,0.1158,0.6239,10.2885,11.4531,6.588,-0.0053
2.7,0.4487,0.8014,10.3624,15.8309,10.5677,2.0686
2.72,0.2131,0.7784,10.4163,11.8621,8.8417,0.159
2.74,0.1634,0.6219,10.3426,14.3169,5.4312,-1.1726
2.76,0.1296,0.6639,10.2997,9.9573,8.1841,-2.4837
2.78,0.1692,0.7386,10.2351,6.6439,7.9527,-0.3009
2.8,0.1264,0.8286,10.3783,13.0764,10.5715,-0.184
2.82,0.1109,0.563,10.1478,5.9885,8.6418,-0.9353
2.84,0.1422,0.6307,10.1664,4.381,8.4639,-4.7503
2.86,0.0655,0.682,10.074,5.2732,10.4491,-1.3807
2.88,-0.0216,0.6597,9.9183,1.6889,8.7432,-3.4282
2.9,0.0686,0.7309,9.8226,3.8819,10.0585,-4.4352
2.92,0.0033,0.5805,9.9083,-0.9521,11.2453,-2.9937
2.94,-0.079,0.4772,9.9454,-0.3139,10.0647,-5.9256
2.96,-0.0306,0.494,9.9116,-4.8045,9.2543,-2.3676
2.98,-0.036,0.5203,10.0103,-7.4416,5.6213,-5.3888
3.0,-0.1318,0.4596,10.129,-7.5394,8.5402,-3.7352
3.02,-0.2202,0.5542,10.2058,-10.9079,8.8634,-4.1428
3.04,-0.0512,0.4368,10.2729,-10.452,8.0055,-2.7572
3.06,-0.1247,0.2615,10.3096,-9.3952,6.1266,-2.111
3.08,-0.1151,0.3963,10.3265,-11.3166,10.4611,-2.7638
3.1,-0.2814,0.4611,10.3655,-11.1331,10.0995,-0.8564
3.12,-0.2862,0.4966,10.2925,-11.1225,7.2657,-0.9442
3.14,-0.1428,0.319,10.3459,-15.4449,5.6413,-0.4403
3.16,-0.1032,0.4482,10.3383,-6.3989,7.0172,1.1591
3.18,-0.1132,0.3779,10.2768,-10.8796,5.9693,-0.6523
3.2,-0.1331,0.3242,10.2457,-12.3025,7.1638,2.4226
3.22,-0.1344,0.3321,10.2513,-8.8116,6.9185,2.2614
3.24,-0.0177,0.3943,10.1146,-6.3606,8.3804,4.0928
3.26,-0.0295,0.611,10.0528,-7.7792,6.9297,2.8982
3.28,-0.1742,0.5781,9.9773,-7.7644,10.9008,2.6916
3.3,-0.1082,0.6506,9.983,-3.8872,6.6905,2.8455
3.32,0.1107,0.4281,9.8781,-1.246,10.5724,5.2371
3.34,0.0244,0.5733,9.8623,-2.0882,8.1215,5.0803
3.36,0.088,0.4584,9.8661,2.4862,9.1904,5.5573
3.38,0.0995,0.507,10.0138,7.2455,8.2112,2.4481
3.4,0.1469,0.5429,10.0014,1.9053,9.9868,3.6426
3.42,0.2393,0.6236,10.2237,4.0269,8.2315,2.245
3.44,0.1146,0.673,10.2902,9.3075,6.2055,3.5294
3.46,0.1174,0.753,10.211,8.8599,8.261,0.1485
3.48,0.1706,0.808,10.3001,12.5735,9.3534,2.1644
3.5,0.2477,0.8109,10.2851,10.1939,8.2285,4.6472
3.52,0.1961,0.7783,10.3651,9.7341,4.5608,-0.9139
3.54,0.2372,0.9068,10.3185,13.6404,7.3462,-0.2125
3.56,0.1488,0.7451,10.3634,8.4034,6.8895,-1.4902
3.58,0.3213,0.6029,10.3226,13.6262,10.6156,-1.6048
3.6,0.1346,0.8234,10.3359,9.4346,13.8379,-2.3263
3.62,0.1012,0.7899,10.2739,8.8345,11.7581,-6.24
3.64,0.1827,0.8636,10.2502,6.6689,5.25,-3.7164
3.66,0.1357,0.6141,10.2219,8.9213,6.6517,-3.0665
3.68,-0.0027,0.5758,10.1545,7.3525,11.3876,-1.7785
3.7,0.1299,0.4797,10.0393,8.8785,7.2438,-4.8813
3.72,0.1822,0.5237,9.9278,6.1728,8.4106,-2.8955
3.74,0.0743,0.5211,9.9123,0.8511,5.6947,-2.6434
3.76,0.1334,0.5684,9.9359,-1.1566,5.3127,-3.831
3.78,-0.0819,0.6194,9.7827,-4.0826,9.0418,-3.2344
3.8,0.1415,0.5251,10.0753,-4.9608,5.2484,-3.4266
3.82,-0.0827,0.5061,10.029,-2.2313,6.7982,-3.7488
3.84,-0.0876,0.415,10.1426,-10.0085,9.85,-2.9989
3.86,-0.2305,0.4785,10.1205,-7.8879,6.2682,-2.8642
3.88,-0.06,0.3522,10.2272,-9.2729,8.478,-5.1244
3.9,-0.1586,0.3705,10.3603,-11.5532,9.8726,-1.312
3.92,-0.1546,0.5251,10.3367,-12.4396,5.2841,-1.8234
3.94,-0.1727,0.387,10.2571,-10.2454,6.2123,-0.7546
3.96,-0.1833,0.5002,10.2702,-7.5054,10.4505,-1.7945
3.98,-0.2471,0.2699,10.4902,-13.7039,5.2548,0.61
4.0,-0.2587,0.448,10.4403,-14.8254,6.5532,-0.6007
4.02,-0.2095,0.4995,10.3176,-11.4066,8.5707,0.5104
4.04,-0.2657,0.4566,10.3075,-8.7023,8.4759,-1.0198
4.06,-0.1017,0.2826,10.3008,-6.9194,5.3833,1.5537
4.08,-0.1039,0.4833,10.1783,-4.4494,6.5899,3.7713
4.1,-0.1295,0.3753,10.1675,-7.3876,8.8425,3.5193
4.12,-0.1299,0.4889,10.0497,-3.9995,9.5948,4.8697
4.14,-0.0068,0.7134,9.8441,-4.3671,9.5064,5.9043
4.16,0.0227,0.4354,9.8083,0.8351,6.7182,4.3194
4.18,-0.0082,0.4978,9.761,-3.2052,7.5956,2.7219
4.2,-0.1272,0.622,9.8266,3.0076,7.6632,4.7229
4.22,0.1178,0.58,10.0395,8.1491,6.9389,-0.3066
4.24,0.2114,0.6466,10.0376,2.7681,5.0021,2.4638
4.26,0.0772,0.6345,10.2498,3.3492,8.458,4.1058
4.28,0.152,0.7625,10.2512,11.7799,9.7699,2.0954
4.3,0.0844,0.725,10.1977,8.2513,7.3226,2.0373
4.32,0.2935,0.8079,10.2642,13.1408,9.9575,2.4217
4.34,0.1341,0.723,10.2933,9.6001,7.1727,-0.7906
4.36,-0.0121,0.8852,10.3798,11.1491,8.3409,-1.4079
4.38,0.2125,0.7228,10.4015,8.0833,8.5918,-1.43
4.4,0.1854,0.7805,10.3831,13.7434,7.5039,-0.8638
4.42,0.0759,0.5855,10.3289,11.1438,8.9642,-0.6873
4.44,0.1663,0.6894,10.19,13.4764,10.1869,-3.7168
4.46,0.2743,0.9107,10.1807,6.6454,8.0852,-0.6662
4.48,0.1826,0.5194,10.1919,9.766,7.4052,-2.2274
4.5,0.0014,0.6446,10.2104,7.7062,8.6101,-2.2542
4.52,0.0637,0.6447,10.0639,5.7579,5.3886,-1.9877
4.54,-0.0532,0.6454,10.0034,-0.0741,8.4581,-3.1292
4.56,-0.0042,0.4676,9.8009,-0.9381,5.6335,-5.6037
4.58,0.0288,0.6851,9.7852,2.088,9.9986,-4.0038
4.6,-0.023,0.5736,9.8833,-3.0907,6.0638,-3.838
4.62,-0.1471,0.4804,9.9654,-5.5142,5.8056,-4.0049
4.64,-0.1534,0.4622,10.0617,-1.6717,10.4135,-5.6681
4.66,-0.1609,0.4683,10.0458,-6.9665,10.375,-1.3054
4.68,-0.0572,0.245,10.1265,-9.617,7.1908,-2.6587
4.7,-0.132,0.3641,10.1562,-5.8316,11.6832,0.2977
4.72,-0.0749,0.4809,10.3202,-8.6185,6.713,-2.4529
4.74,-0.2581,0.3888,10.3058,-8.735,5.0716,-0.7088
4.76,-0.2329,0.2802,10.302,-11.2462,9.1273,2.5673
4.78,-0.1421,0.4331,10.4494,-9.4468,7.8892,0.1349
4.8,-0.1835,0.4519,10.2792,-12.8549,8.9972,0.8898
4.82,-0.2285,0.3842,10.3217,-11.7536,6.6931,2.0531
4.84,-0.0959,0.2949,10.4245,-8.1125,10.543,1.377
4.86,-0.0939,0.3994,10.3406,-9.9158,10.2229,3.2219
4.88,-0.2046,0.3888,10.3482,-10.6333,9.1964,0.2208
4.9,-0.1485,0.4458,10.1614,-6.3529,7.9413,3.6965
4.92,-0.1038,0.458,10.2276,-6.5754,7.5066,3.1793
4.94,-0.0648,0.4862,10.1859,-4.4971,7.5556,4.2047
4.96,0.0417,0.4425,9.9022,-8.6652,8.3185,2.6803
4.98,0.1112,0.5681,9.7635,-4.1462,10.504,6.5106
5.0,0.0173,0.5808,9.7754,-4.0436,5.2481,1.0984
5.02,-0.0343,0.5793,9.8831,-1.0116,5.3352,5.3127
5.04,0.0996,0.5722,9.9996,2.4418,9.0637,3.9865
5.06,0.0547,0.5317,10.0207,9.2858,10.2506,6.3506
5.08,0.1271,0.693,10.126,8.3398,10.55,3.9352
5.1,0.1481,0.7071,10.2191,4.3456,5.248,2.335
5.12,0.2671,0.7424,10.2802,11.0888,7.1807,-0.2705
5.14,0.0843,0.7555,10.2946,10.3518,9.5697,2.7873
5.16,0.0926,0.733,10.3156,10.2232,4.8134,-0.2936
5.18,0.0741,0.5848,10.3046,9.459,8.4007,1.3476
5.2,0.363,0.7433,10.3695,14.301,7.2867,-0.247
5.22,0.1875,0.729,10.3825,8.9607,7.0389,-2.9408
5.24,0.1212,0.7042,10.2522,14.5702,10.3846,-1.4255
5.26,0.2535,0.7801,10.2662,11.0533,8.9485,-2.2381
5.28,0.3339,0.8233,10.27,14.3386,8.4556,-0.5735
5.3,0.209,0.6022,10.2691,9.22,4.646,-2.7495
5.32,0.2026,0.6206,10.193,6.8927,8.3448,-0.8773
5.34,0.0962,0.5755,9.9696,6.0435,6.1552,-3.6786
5.36,0.0313,0.4896,10.0781,6.8791,8.1226,-4.9013
5.38,-0.0257,0.4682,10.0146,1.5623,7.8111,-2.037
5.4,-0.0312,0.4417,9.9827,3.2383,7.482,-2.7394
5.42,-0.0707,0.563,9.9077,-5.1216,9.5154,-5.1595
5.44,-0.0709,0.498,9.8428,-1.5116,8.9097,-5.7238
5.46,-0.0362,0.5036,9.9759,-4.6553,10.0137,-2.6127
5.48,-0.0556,0.4792,10.0828,-6.4679,7.3471,-0.8444
5.5,-0.2111,0.5747,10.1326,-6.5709,7.5437,-2.1593
5.52,-0.0762,0.4423,10.2106,-4.5778,6.2454,-2.6509
5.54,-0.0936,0.4079,10.1466,-11.2447,6.8883,-4.2285
5.56,-0.2441,0.5375,10.2442,-8.3991,10.2202,-2.9288
5.58,-0.303,0.5548,10.3004,-9.2427,5.8119,-1.0136
5.6,-0.0934,0.4922,10.2776,-13.111,7.7109,-1.3573
5.62,-0.2029,0.3791,10.3281,-8.3085,5.4114,-0.9029
5.64,-0.2879,0.3632,10.3698,-8.47,9.7097,-1.0125
5.66,-0.1027,0.3102,10.3003,-9.9627,6.7929,-0.2632
5.68,-0.192,0.4284,10.3809,-15.1124,5.7482,-0.1668
5.7,-0.1673,0.3751,10.2624,-14.4483,9.2122,2.3613
5.72,-0.1275,0.5669,10.2255,-6.4658,9.6496,2.9248
5.74,0.0044,0.4102,10.1642,-8.5463,5.6143,4.6325
5.76,-0.052,0.49,9.9547,-6.8043,7.513,3.8804
5.78,-0.1217,0.5195,10.1068,-3.6205,7.9281,3.2641
5.8,-0.1321,0.4458,9.9636,-1.2903,10.5492,5.2776
5.82,-0.0397,0.5294,9.9066,-6.3552,6.9493,2.2805
5.84,-0.0491,0.6519,9.7944,0.2074,6.3212,5.3016
5.86,0.052,0.6932,9.9428,1.0114,7.4951,5.9804
5.88,0.1504,0.5577,9.9653,4.4745,8.7703,3.9637
5.9,0.0447,0.6587,10.0715,7.5105,7.3768,3.5415
5.92,0.1379,0.5274,10.1353,10.0922,10.4061,-0.3546
5.94,0.1368,0.8609,10.1833,12.55,10.1438,0.7661
5.96,0.2315,0.631,10.2903,6.6117,7.3514,1.6023
5.98,0.1529,0.8257,10.2681,10.5102,9.0984,-0.2409
6.0,0.2092,0.6304,10.3347,10.5604,5.628,1.7171
6.02,0.3228,0.6668,10.3125,10.6273,6.1336,0.9732
6.04,0.3083,0.8681,10.4342,13.148,4.1698,-0.3019
6.06,0.1761,0.7022,10.3842,6.3947,6.0284,0.6196
6.08,0.1711,0.8413,10.3021,10.3442,7.6199,-2.8159
6.1,0.1439,0.6886,10.2098,7.4119,6.8211,-1.4193
6.12,0.0647,0.8195,10.3156,11.8258,9.8271,-1.8762
6.14,0.1925,0.6751,10.3923,12.5335,8.6231,-1.6534
6.16,0.0461,0.5702,10.1531,11.4193,6.3353,-3.4442
6.18,0.0657,0.5887,10.1248,6.0857,2.4475,-4.881
6.2,0.0834,0.783,10.0821,0.8845,11.8764,-5.3751
6.22,-0.0106,0.4244,9.9251,3.2408,9.8974,-4.9342
6.24,0.0681,0.5625,9.8414,0.3063,5.8487,-3.179
6.26,-0.1002,0.432,9.949,1.3223,10.3813,-1.5493
6.28,-0.0312,0.4514,9.9,-2.2781,8.4729,-3.7008
6.3,-0.1246,0.5374,10.0,-3.7249,7.6791,-1.8559
6.32,-0.1945,0.5349,10.0843,-6.6403,8.7048,-2.5577
6.34,-0.1349,0.424,10.1276,-7.4324,4.4607,-3.4571
6.36,-0.2128,0.4251,10.2665,-5.9738,5.3103,-0.3266
6.38,-0.1572,0.2238,10.2589,-7.5833,6.5138,-2.0344
6.4,-0.1705,0.4474,10.2114,-10.1761,7.9771,-1.2597
6.42,-0.0909,0.4885,10.321,-15.3015,7.6584,-1.2624
6.44,-0.3044,0.3487,10.3611,-8.4386,8.6175,-0.3388
6.46,-0.2112,0.3789,10.2854,-8.597,5.6372,1.3872
6.48,-0.1664,0.3198,10.3839,-9.2697,8.1524,-3.1918
6.5,-0.2199,0.4662,10.2902,-8.7815,4.9898,5.1326
6.52,-0.1497,0.3825,10.3229,-14.7857,10.5005,1.8527
6.54,-0.1394,0.4877,10.2396,-11.6496,7.3706,1.6274
6.56,-0.0593,0.3404,10.1474,-8.731,5.9514,3.6402
6.58,-0.1047,0.4961,10.2382,-13.5186,7.6607,2.0316
6.6,-0.2141,0.5058,10.0746,-5.3384,6.4823,3.8429
6.62,-0.1226,0.5809,10.0245,-5.788,9.0518,3.5253
6.64,0.0264,0.5956,9.9107,-3.2901,8.2954,6.5707
6.66,-0.0804,0.5399,9.8463,-2.5332,5.2382,4.5841
6.68,0.0773,0.6176,9.8967,-2.7835,5.6717,3.6203
6.7,-0.0765,0.4776,9.9311,6.2753,6.3576,6.0594
6.72,0.089,0.5277,10.1178,1.5901,4.629,3.3311
6.74,0.0719,0.5377,10.0295,8.7321,6.6154,3.4614
6.76,-0.0029,0.6204,10.1869,6.8015,7.1484,5.7074
6.78,0.0235,0.6968,10.1759,7.9774,7.8905,0.9579
6.8,0.2057,0.6559,10.314,8.7193,11.0613,1.8831
6.82,0.1435,0.5388,10.2499,8.9478,7.2245,2.6939
6.84,0.2201,0.6886,10.3444,12.9923,7.8949,2.5442
6.86,-0.004,0.6524,10.3536,13.2593,10.1276,-0.8862
6.88,0.0993,0.6866,10.299,9.8339,9.1164,0.6071
6.9,0.1948,0.7052,10.3917,10.9109,7.6955,-1.4765
6.92,0.0963,0.7548,10.3716,11.2425,6.4639,-1.7449
6.94,0.2387,0.6851,10.3113,10.37,9.5353,-4.8602
6.96,0.2521,0.5825,10.2923,8.5829,7.3814,-4.2889
6.98,0.1051,0.6307,10.0885,9.4879,7.0296,0.3048
7.0,0.0856,0.667,10.0879,10.1455,4.584,-1.8209
7.02,0.2022,0.5973,10.0612,0.9361,10.4961,-4.4877
7.04,0.1179,0.6349,10.0291,4.7366,9.9962,-6.9497
7.06,0.1618,0.6724,9.8818,2.1938,5.3053,-3.8742
7.08,-0.0144,0.5529,9.8783,0.5803,8.5991,-3.3661
7.1,0.019,0.5959,9.8852,-4.3921,4.2213,-4.1359
7.12,-0.0688,0.5517,9.8352,-0.6508,7.3636,-4.9834
7.14,-0.1016,0.5004,10.1636,-2.5216,6.1538,-4.0285
7.16,-0.1234,0.4768,10.1,-6.4932,5.8663,-2.2473
7.18,-0.1848,0.3411,10.2405,-8.4099,10.367,-3.0324
7.2,-0.1229,0.3679,10.2507,-7.4431,8.7322,-2.8631
7.22,-0.2011,0.3279,10.306,-7.3447,7.4092,-2.0606
7.24,-0.1601,0.4651,10.377,-12.8915,9.8626,-1.7997
7.26,-0.0206,0.3718,10.4066,-12.5126,8.4206,0.556
7.28,-0.3246,0.442,10.3612,-9.7752,8.9682,0.1352
7.3,-0.0878,0.3918,10.3725,-13.7222,9.9864,0.9331
7.32,-0.0358,0.4644,10.3307,-12.2875,8.0398,1.9941
7.34,-0.1493,0.3977,10.2994,-16.7805,7.2747,-0.0867
7.36,-0.0729,0.4645,10.3218,-6.1629,7.9617,2.8662
7.38,-0.073,0.541,10.3381,-10.8856,4.8213,0.2314
7.4,-0.1884,0.3447,10.3047,-11.1083,9.544,2.1228
7.42,-0.1461,0.5031,10.0389,-6.3428,6.9263,5.3634
7.44,-0.0007,0.4417,10.0454,-5.3541,8.4982,1.7946
7.46,-0.0418,0.5346,9.976,-3.9654,3.952,3.1421
7.48,-0.046,0.6029,9.858,1.0531,10.0519,3.9931
7.5,0.0095,0.4499,9.8075,-1.4114,6.8678,3.5278
7.52,0.0703,0.7542,9.7804,2.1998,6.7306,2.7545
7.54,0.0843,0.5686,9.9857,4.7857,10.0207,4.1979
7.56,0.0744,0.5558,9.9657,6.3205,7.8637,5.8602
7.58,0.3308,0.3988,10.1832,11.1837,7.5315,1.6112
7.6,0.1508,0.6434,10.1019,8.1837,9.2332,1.7217
7.62,0.1073,0.7224,10.331,10.3367,11.9651,1.5125
7.64,0.18,0.7872,10.2977,8.5572,4.0342,2.0851
7.66,0.1131,0.742,10.3249,11.9804,10.4406,3.4672
7.68,0.2238,0.7778,10.3254,9.6556,8.4679,2.0132
7.7,0.2343,0.7464,10.3619,9.4491,4.4313,-0.8535
7.72,0.1408,0.6178,10.3101,11.9899,4.9705,-1.2313
7.74,0.232,0.7994,10.3212,19.176,6.6241,-1.751
7.76,0.0953,0.7128,10.3684,8.7229,11.5039,0.2767
7.78,0.334,0.6189,10.1927,7.1794,10.1629,-0.4117
7.8,0.3304,0.6609,10.1974,7.8973,5.6448,-0.2962
7.82,-0.0451,0.6505,10.1181,10.9311,7.86,-3.2441
7.84,0.1076,0.8273,10.0963,7.9284,8.7174,-5.4231
7.86,0.1646,0.7814,10.0061,2.0787,4.6996,-3.5233
7.88,0.1532,0.5752,9.9604,8.4572,4.9929,-4.3774
7.9,0.0092,0.6606,9.9025,4.4355,8.9485,-2.9619
7.92,0.0862,0.7376,9.8232,-0.847,6.979,-2.4541
7.94,0.0378,0.3593,9.8788,-2.4036,8.6226,-3.1019
7.96,-0.0904,0.534,9.9439,-3.391,10.0687,-2.5873
7.98,-0.1265,0.5542,10.1475,-3.717,7.7086,-4.8691
8.0,-0.0272,0.5632,10.1321,-6.6709,6.8125,-3.2711
8.02,-0.1958,0.4642,10.1837,-12.7955,7.8274,0.3825
8.04,-0.2759,0.3944,10.2521,-10.2069,7.7902,-1.9756
8.06,-0.257,0.4448,10.2148,-10.7515,6.5119,-2.4744
8.08,-0.2344,0.3474,10.3176,-14.1561,4.5437,-0.8141
8.1,-0.2854,0.4154,10.2563,-8.7625,8.0483,-0.159
8.12,-0.2914,0.4694,10.3495,-10.1936,4.3557,0.0644
8.14,-0.2691,0.3672,10.4226,-9.5937,4.7393,0.3028
8.16,-0.193,0.3505,10.3193,-9.7693,10.0613,2.7516
8.18,-0.1139,0.5423,10.2559,-14.7032,7.7101,1.0845
8.2,-0.0981,0.4987,10.256,-8.2612,6.5847,3.8799
8.22,-0.1393,0.5446,10.2319,-11.5997,3.6872,2.4615
8.24,-0.1037,0.4479,10.162,-6.7882,7.9733,3.5659
8.26,-0.1271,0.4411,10.135,-8.3931,9.3638,2.4317
8.28,-0.1242,0.4051,10.0914,-8.5681,7.358,4.2065
8.3,-0.1264,0.5531,9.8767,2.1319,8.8445,2.5895
8.32,-0.0723,0.6592,9.8599,0.2273,8.3676,1.3175
8.34,-0.0227,0.5761,9.8393,-4.2167,10.4469,6.2278
8.36,0.0885,0.6822,9.8775,4.0395,8.3376,5.308
8.38,0.1215,0.5892,10.0184,5.6553,8.2245,6.016
8.4,0.0879,0.6161,10.0993,3.5117,4.918,4.5831
8.42,0.0539,0.6022,10.0787,9.0812,9.0625,1.3685
8.44,0.0691,0.5424,10.2001,7.2251,10.998,4.9871
8.46,0.1284,0.7146,10.1694,14.6617,7.4354,-0.5257
8.48,0.2282,0.6638,10.2759,12.4289,8.1459,1.2058
8.5,0.193,0.7013,10.3962,9.7528,7.0662,1.9908
8.52,0.1653,0.6787,10.3598,9.6638,5.6667,-2.4314
8.54,0.1514,0.6147,10.3701,9.365,8.6563,-2.6711
8.56,0.2241,0.7288,10.3896,8.5476,9.9165,-0.0821
8.58,0.1493,0.7212,10.3398,11.9889,7.6523,0.8139
8.6,0.1252,0.8987,10.2439,10.1171,9.7938,-2.8245
8.62,0.1552,0.7957,10.383,7.3622,10.0645,-2.125
8.64,0.1647,0.7914,10.121,11.4536,6.5627,-3.0339
8.66,0.1353,0.4887,10.1039,6.6016,6.8479,-1.9092
8.68,0.0668,0.7312,10.0566,6.4766,6.3336,-5.9825
8.7,0.0147,0.6364,9.9258,5.2543,10.9236,-6.0646
8.72,0.0149,0.7145,9.8951,2.2557,7.6422,-2.6247
8.74,0.0821,0.4912,9.8281,-1.205,6.2997,-3.0531
8.76,-0.0704,0.5984,9.6691,-0.2914,10.4917,-5.7708
8.78,-0.0956,0.5831,9.8108,-0.4501,6.4781,-1.8963
8.8,-0.0517,0.5146,10.0579,-8.0129,8.8319,-3.1051
8.82,-0.139,0.6062,10.1029,-11.947,8.9788,-5.2092
8.84,-0.1186,0.6563,10.2066,-7.0458,7.432,-0.4942
8.86,-0.1454,0.3258,10.2245,-10.8848,3.562,-2.4604
8.88,-0.2515,0.473,10.1803,-8.4741,11.6603,-3.2981
8.9,-0.1725,0.4345,10.203,-5.241,5.2311,-2.1771
8.92,-0.1535,0.4491,10.5329,-8.589,10.9496,0.0932
8.94,-0.2355,0.3855,10.3957,-8.3727,8.3883,-2.3631
8.96,-0.027,0.535,10.4264,-9.1209,7.4488,2.8739
8.98,-0.1795,0.458,10.2487,-9.1941,4.8167,-0.8403
9.0,-0.193,0.4934,10.2435,-7.7861,11.6163,2.9098
9.02,-0.223,0.2613,10.3158,-10.5959,11.0188,0.8896
9.04,-0.2062,0.1859,10.166,-10.0206,3.681,1.8971
9.06,-0.2338,0.4696,10.1045,-6.0217,5.887,1.6118
9.08,-0.2294,0.5688,10.0594,-7.9057,10.1314,1.0089
9.1,-0.0736,0.3607,10.0442,-11.3631,7.0822,4.5456
9.12,-0.1492,0.5834,10.0014,-5.8177,8.3136,-1.0701
9.14,-0.1434,0.5061,9.9481,-5.2101,4.215,4.3852
9.16,0.079,0.5635,9.9038,-2.0344,7.3302,1.6631
9.18,-0.01,0.5235,9.9613,-0.4241,8.2131,2.5467
9.2,-0.008,0.5998,9.9017,2.9149,8.1317,5.3452
9.22,-0.0236,0.5803,10.0172,4.689,8.6822,3.7483
9.24,0.0899,0.5812,10.0758,6.478,9.9562,4.6616
9.26,0.2048,0.6983,10.2129,11.6072,6.441,2.6217
9.28,0.1864,0.6393,10.208,7.4468,8.7543,5.652
9.3,0.1369,0.6585,10.0636,10.7476,8.7508,3.5751
9.32,0.1678,0.5731,10.2742,9.8422,8.6169,2.2993
9.34,0.3525,0.8438,10.3404,8.8404,7.081,0.3025
9.36,0.2694,0.7086,10.5094,13.5548,8.6857,0.555
9.38,0.1322,0.7876,10.3019,10.7805,10.2149,0.2031
9.4,0.1303,0.6843,10.3568,9.6227,8.5405,0.3653
9.42,0.1015,0.4651,10.2618,12.0955,11.1307,-0.8333
9.44,0.0717,0.6315,10.384,10.7532,8.4,-0.3557
9.46,0.0618,0.6322,10.2426,9.4748,6.211,-5.509
9.48,0.0433,0.5711,10.1971,10.532,6.4863,-2.6376
9.5,0.0848,0.7721,10.2514,7.3444,8.0712,-1.8286
9.52,0.0447,0.6391,10.0768,8.1961,8.0796,-7.0727
9.54,0.0446,0.7452,10.0442,8.9527,8.1738,-3.2914
9.56,0.0347,0.6586,9.8518,1.6551,10.3486,-3.3951
9.58,0.0496,0.5658,9.822,2.3934,6.4525,-5.1
9.6,0.1567,0.5157,9.8404,1.8179,8.9673,-5.39
9.62,0.0042,0.5475,9.8057,-4.0286,10.7584,-4.8964
9.64,-0.0137,0.4659,10.1008,-7.5195,7.8727,-2.2203
9.66,-0.0608,0.2976,10.1967,-11.8927,8.3641,0.0067
9.68,-0.1892,0.5527,10.2336,-5.6716,9.9346,-3.2815
9.7,-0.2946,0.4273,10.3151,-10.6216,6.3099,-1.4128
9.72,-0.1811,0.4095,10.2097,-8.1191,8.0822,-3.1915
9.74,-0.205,0.3761,10.2626,-8.4967,9.8539,-1.2528
9.76,-0.1398,0.4848,10.5432,-8.9667,12.9747,-1.196
9.78,-0.2212,0.3927,10.2898,-11.8533,8.0235,0.2418
9.8,-0.125,0.3918,10.3617,-7.622,8.9657,-0.7925
9.82,-0.1874,0.3639,10.3384,-11.8403,10.3445,1.2883
9.84,-0.1332,0.4974,10.3117,-12.6878,6.733,2.5507
9.86,-0.1326,0.5494,10.2533,-10.461,7.4873,2.6279
9.88,-0.2447,0.4235,10.257,-5.9933,11.3195,2.1164
9.9,-0.1212,0.5348,10.1871,-9.4323,6.8771,3.481
9.92,-0.302,0.5098,10.1328,-4.038,13.278,2.3297
9.94,-0.0843,0.4476,10.0174,-6.5503,6.2395,1.7715
9.96,-0.0232,0.4564,10.007,-8.8001,7.6277,4.6967
9.98,0.0172,0.6254,9.8563,-2.1956,11.2022,4.978
10.0,0.0259,0.6675,9.7118,-0.5923,14.5688,4.6102
10.02,0.1034,0.5895,9.7982,6.5623,7.7882,2.8277
10.04,0.0666,0.7439,10.0796,4.1985,8.9143,4.6793
10.06,0.0468,0.5363,10.1046,11.712,8.0752,3.9051
10.08,0.1564,0.6289,10.0513,10.2812,7.6801,0.1938
10.1,0.0218,0.6653,10.1432,13.0532,9.6483,2.8196
10.12,0.1937,0.6317,10.2564,11.0054,8.6067,3.6487
10.14,0.1517,0.7207,10.3148,8.7902,6.386,1.0354
10.16,0.1267,0.6162,10.2594,8.2204,6.0702,1.1619
10.18,0.1736,0.5822,10.2086,12.8718,6.364,2.6072
10.2,0.0671,0.5582,10.3484,13.4605,5.9321,1.6601
10.22,0.1953,0.7344,10.3886,11.3071,10.5593,0.7045
10.24,0.2159,0.8054,10.4167,10.03,5.7827,-0.2947
10.26,0.2035,0.6799,10.165,12.2288,8.8423,-1.414
10.28,0.1648,0.6193,10.3304,12.8753,11.6244,-2.5581
10.3,0.1827,0.6332,10.2462,9.6523,6.5509,-1.4444
10.32,0.1318,0.5673,10.2688,8.1333,7.9172,-4.668
10.34,0.1803,0.5933,10.0671,13.5632,7.5612,-4.0234
10.36,0.0878,0.6211,10.0615,4.3656,10.0626,-3.1007
10.38,0.0771,0.6845,9.9979,7.7719,4.8538,-4.0463
10.4,0.0401,0.6073,9.8772,3.1686,7.3221,-2.9625
10.42,-0.0731,0.583,9.7904,0.3418,11.6898,-6.2876
10.44,-0.1563,0.6003,9.9459,-5.365,5.6439,-2.7128
10.46,-0.0204,0.4882,9.934,-3.3657,9.7799,-1.0929
10.48,-0.0957,0.5247,10.0607,-1.5947,6.9129,-4.2982
10.5,-0.1351,0.5702,10.0609,-6.8562,9.3231,-4.5971
10.52,-0.0561,0.4722,10.2315,-10.5202,9.1917,0.2254
10.54,-0.2497,0.4365,10.2982,-8.8428,3.8982,-2.4802
10.56,-0.1967,0.4147,10.2148,-8.5469,8.1305,-0.1932
10.58,-0.2161,0.4875,10.3255,-11.4808,8.4229,-3.2663
10.6,-0.1079,0.4145,10.229,-12.1092,6.7854,-1.488
10.62,-0.117,0.4497,10.4094,-10.6167,7.5558,-1.4414
10.64,-0.2009,0.3431,10.2778,-11.9851,7.7727,3.0753
10.66,0.004,0.5158,10.3591,-8.9933,14.3322,1.6689
10.68,-0.2419,0.2921,10.3452,-11.0539,5.5383,1.7186
10.7,-0.1969,0.5536,10.2705,-9.0043,8.643,2.7626
10.72,-0.2534,0.3233,10.2997,-7.542,8.7805,4.5083
10.74,-0.0813,0.4504,10.1512,-9.7423,8.9365,1.496
10.76,-0.1041,0.4763,10.1096,-8.4399,6.7645,3.5701
10.78,-0.124,0.4441,10.0413,-4.2627,8.8584,2.0482
10.8,-0.0722,0.44,9.975,-4.7592,5.9969,3.6793
10.82,-0.0743,0.4939,9.8469,-2.747,10.6998,3.376
10.84,-0.0031,0.4859,9.9121,2.9118,8.7464,4.3313
10.86,-0.134,0.6471,9.9201,0.7929,7.0923,3.2262
10.88,0.0318,0.6584,10.0596,-0.6947,9.5363,2.2804
10.9,0.1348,0.6423,10.1268,3.003,10.3125,2.2749
10.92,0.0211,0.7497,10.1937,4.6613,9.1559,5.3788
10.94,0.1626,0.7605,10.1333,7.0677,6.922,2.0854
10.96,0.1664,0.6143,10.2814,12.4143,5.435,1.1682
10.98,0.2041,0.8435,10.2777,8.4972,12.7455,2.6866
11.0,0.1429,0.6576,10.3869,14.5409,9.5993,1.0449
11.02,0.1956,0.7541,10.3343,12.0,9.6692,2.1217
11.04,0.1151,0.669,10.3082,10.1302,8.1342,-1.1782
11.06,0.2079,0.483,10.3684,9.6556,7.6802,-1.5751
11.08,0.2273,0.7699,10.3097,10.2759,7.9424,-3.4084
11.1,0.1024,0.7759,10.3059,5.4396,10.8643,-1.6412
11.12,0.0358,0.6135,10.2892,14.3894,7.579,-0.177
11.14,0.1547,0.6458,10.2386,5.1905,7.1487,-1.0212
11.16,0.1089,0.6137,10.0707,4.9216,8.1573,-1.1162
11.18,0.0003,0.4997,10.0164,10.3152,9.3702,-2.4495
11.2,0.0972,0.6196,10.0363,2.958,3.0884,-3.1977
11.22,0.1103,0.5762,9.9583,6.922,8.312,-3.448
11.24,0.0408,0.3495,9.8834,2.1774,8.8471,-2.3903
11.26,-0.041,0.5433,9.796,0.7581,4.4631,-4.8868
11.28,-0.0091,0.6226,9.912,-5.5454,6.7727,-5.3752
11.3,-0.0747,0.5104,10.0359,-4.2083,7.8762,-3.8909
11.32,-0.2765,0.5228,10.1794,-7.1674,6.1856,-2.5837
11.34,-0.1604,0.5559,10.212,-2.5436,9.0791,-2.6491
11.36,-0.2076,0.5452,10.1998,-13.8769,6.2344,-3.6913
11.38,-0.1736,0.3597,10.2913,-10.3856,11.2492,-3.2883
11.4,-0.1027,0.611,10.3243,-8.1587,8.8643,-2.9158
11.42,-0.1505,0.557,10.3656,-11.8157,8.8595,-0.62
11.44,-0.209,0.3641,10.407,-11.6225,13.5145,-0.3389
11.46,-0.1387,0.4257,10.2792,-13.2127,6.0244,-0.0444
11.48,-0.1607,0.2276,10.5226,-8.2302,6.6887,0.4757
11.5,-0.3401,0.3524,10.3908,-9.458,6.6209,3.3094
11.52,-0.1311,0.4446,10.3063,-8.7724,5.4706,1.3685
11.54,-0.0036,0.4381,10.1433,-4.7713,10.409,0.6225
11.56,-0.1361,0.3833,10.1707,-5.5791,7.9503,2.6576
11.58,-0.1459,0.4515,10.1757,-8.706,5.8746,0.6845
11.6,-0.1526,0.4524,9.9752,-8.7419,7.1775,3.4377
11.62,-0.1636,0.5278,10.0466,-3.9489,9.3648,4.3623
11.64,-0.029,0.393,9.882,-4.4517,7.2383,1.8869
11.66,-0.0255,0.5223,9.8881,0.7003,9.098,6.3096
11.68,0.0791,0.5969,9.8642,3.7385,10.4961,0.1984
11.7,-0.0317,0.5562,9.9104,7.7163,10.5769,3.0385
11.72,0.0926,0.5454,10.0565,4.0434,6.3462,5.4359
11.74,0.1644,0.6117,9.9976,2.2207,8.7946,1.2629
11.76,0.1114,0.62,10.1385,9.7305,6.094,4.5847
11.78,0.0805,0.5599,10.1816,13.3497,9.1073,1.0101
11.8,0.0179,0.632,10.273,11.5552,6.3015,2.3107
11.82,0.1705,0.6875,10.2421,13.3704,8.7418,0.1631
11.84,0.2168,0.7235,10.2712,15.2112,5.5104,2.9171
11.86,0.0647,0.6983,10.25,11.4415,7.191,0.9641
11.88,0.1654,0.7532,10.3701,8.497,7.8465,-0.2082
11.9,0.2111,0.5537,10.2618,11.0853,9.9106,0.6937
11.92,0.2394,0.724,10.3796,16.3006,6.63,-2.7547
11.94,0.13,0.6669,10.3193,7.9393,7.2876,-3.1352
11.96,0.2064,0.7006,10.3023,4.3372,7.0151,-4.4762
11.98,0.1078,0.4835,10.1761,8.2731,9.6318,-4.077
12.0,-0.0819,0.7205,10.1848,12.2722,9.6692,-1.1548
12.02,0.102,0.5649,10.0274,7.6797,7.1251,-5.3534
12.04,0.0591,0.5378,9.8975,5.8187,8.2395,-4.7464
12.06,-0.0355,0.6508,9.9533,3.7615,10.0269,-2.1298
12.08,-0.1339,0.6981,9.739,-8.4753,7.4618,-5.3158
12.1,-0.0652,0.3851,9.8624,-3.4698,6.9049,-5.1878
12.12,0.0493,0.518,9.9866,0.2654,7.2228,-3.7839
12.14,-0.1426,0.2814,9.9559,-1.4922,6.2122,-6.2007
12.16,-0.014,0.415,10.1003,-6.064,5.6698,-2.8916
12.18,-0.074,0.4988,10.2135,-8.9932,8.5977,-1.7694
12.2,-0.1837,0.5002,10.2393,-13.3959,5.866,-1.7227
12.22,-0.0823,0.401,10.1966,-7.798,8.5346,-4.8369
12.24,-0.207,0.4033,10.2523,-10.7545,6.975,-0.9593
12.26,-0.1033,0.5404,10.3796,-9.882,6.9117,-3.184
12.28,-0.2963,0.3375,10.4175,-5.8644,5.2309,-0.4459
12.3,-0.2341,0.5359,10.4827,-16.1085,5.075,0.4506
12.32,-0.2928,0.5855,10.3811,-11.6155,9.3485,1.9275
12.34,-0.0988,0.45,10.3212,-11.1033,10.9375,0.3885
12.36,-0.0135,0.3079,10.2721,-10.3043,7.6132,-0.1808
12.38,-0.0745,0.5186,10.294,-2.7286,5.0132,-0.2534
12.4,-0.2247,0.5166,10.1167,-11.275,7.9487,-0.5363
12.42,-0.0401,0.4202,10.1711,-5.7122,4.693,4.7696
12.44,0.0002,0.4661,9.9018,-4.8542,11.0615,4.0849
12.46,-0.0384,0.5895,9.9709,-6.6362,6.8387,5.4044
12.48,-0.0982,0.5664,9.8502,-1.8628,1.6581,6.1848
12.5,0.0872,0.5936,9.7342,-2.482,11.0157,4.5391
12.52,0.0553,0.4476,9.9918,1.4018,10.1754,3.1426
12.54,-0.0543,0.7128,10.1119,4.2211,7.3173,2.6233
12.56,0.0909,0.6377,10.1596,6.2201,8.2167,4.2113
12.58,0.0336,0.5791,10.0353,8.6668,7.4512,2.5326
12.6,0.0878,0.5953,10.1604,10.5739,6.5765,4.3226
12.62,0.1606,0.5762,10.1414,5.6862,7.2757,1.7044
12.64,0.1704,0.6837,10.3821,11.4165,6.208,4.0027
12.66,0.2139,0.7011,10.2968,11.7437,9.172,3.0618
12.68,0.2943,0.7515,10.3619,11.6266,5.808,2.8994
12.7,0.2699,0.6234,10.4533,12.2002,7.8444,-0.7039
12.72,0.131,0.6503,10.4225,14.8077,7.5741,0.7437
12.74,0.1884,0.7355,10.2869,10.7374,9.0304,0.0308
12.76,0.3017,0.8121,10.4076,6.4323,9.6474,-2.8445
12.78,0.2485,0.587,10.2693,9.1321,5.9702,-0.8974
12.8,0.1551,0.6864,10.2514,10.2243,6.5994,-2.7965
12.82,0.1433,0.6971,10.1801,5.3461,5.7612,-2.8699
12.84,0.1031,0.5372,10.0584,9.0994,10.0447,-6.8392
12.86,0.0695,0.6177,10.0813,4.17,6.8234,-2.3749
12.88,0.0268,0.5895,9.8704,-0.513,8.1898,-2.6679
12.9,-0.005,0.5833,9.9266,1.8709,7.6574,-0.4988
12.92,0.0746,0.6107,9.8584,-3.9765,5.4495,-3.8005
12.94,-0.0251,0.6087,9.9621,-3.9064,5.8004,-2.5063
12.96,-0.0265,0.3717,9.9028,-6.1603,4.2575,-2.6154
12.98,0.0409,0.4681,10.074,-5.6304,7.7344,-0.6329
13.0,-0.1096,0.4504,10.2665,-7.5035,5.6531,-3.5123
13.02,-0.1405,0.3606,10.1218,-8.862,7.1258,-0.813
13.04,-0.2473,0.4528,10.2263,-8.0073,7.7399,-1.3478
13.06,-0.1804,0.5198,10.2856,-11.983,10.2509,-1.7842
13.08,-0.2182,0.3663,10.3924,-9.0718,10.4208,-1.8776
13.1,-0.0821,0.3344,10.4099,-10.921,5.8689,-1.5246
13.12,-0.185,0.5542,10.423,-11.7822,8.6634,-3.8566
13.14,-0.1871,0.5188,10.3944,-12.4363,8.045,0.9235
13.16,-0.3008,0.3555,10.3524,-12.4236,8.5224,0.3634
13.18,-0.1499,0.3287,10.2825,-7.1314,10.8157,2.5141
13.2,-0.3127,0.5238,10.2477,-8.8808,8.0465,2.0437
13.22,-0.0647,0.4698,10.2064,-8.672,6.2149,1.9055
13.24,-0.0806,0.4323,10.1714,-9.6207,7.6893,3.8467
13.26,-0.0833,0.5952,10.1629,-8.0255,10.6328,2.8496
13.28,-0.1275,0.5635,9.89,-6.4662,9.5181,6.2898
13.3,0.0324,0.4237,9.8826,-1.0911,9.4287,4.4727
13.32,0.0042,0.438,9.8788,-3.4706,10.1769,4.109
13.34,0.115,0.4973,9.8209,3.2386,7.582,3.9354
13.36,0.0758,0.3974,9.9759,6.2033,7.4538,3.5264
13.38,0.2057,0.6586,9.9893,4.2196,11.4249,2.9494
13.4,0.1452,0.5518,10.1,2.3906,9.2464,3.203
13.42,0.1732,0.6365,10.0785,6.3585,7.116,2.9747
13.44,0.1069,0.6481,10.2918,11.9716,10.1344,1.0258
13.46,0.1197,0.6654,10.2624,9.2399,10.502,0.9649
13.48,0.2267,0.6588,10.3865,11.305,4.7512,1.9824
13.5,0.1564,0.5601,10.3984,13.0855,5.8039,1.4045
13.52,0.1866,0.7168,10.3864,8.7955,8.7714,2.6319
13.54,0.0879,0.6051,10.4414,9.9892,9.386,-0.2913
13.56,0.1518,0.6987,10.3412,10.5156,9.1558,-1.9697
13.58,0.1257,0.6803,10.3511,14.6796,9.1357,0.166
13.6,0.1645,0.6509,10.3428,14.5765,10.4621,-3.8682
13.62,0.1805,0.6855,10.3336,13.8273,10.8593,-2.7013
13.64,0.1186,0.7329,10.1851,10.942,5.0923,-2.6013
13.66,0.1332,0.7251,10.1732,8.9568,5.8813,-3.0201
13.68,0.0493,0.6481,10.1417,8.4072,9.4299,-5.4566
13.7,0.1922,0.7212,10.0515,4.3316,8.6461,-6.155
13.72,0.0021,0.4973,9.9377,0.4063,10.3679,-5.5739
13.74,-0.0241,0.6489,9.7603,6.0424,6.5339,-6.4953
13.76,0.0008,0.3978,9.8264,-4.6596,7.5035,-1.64
13.78,-0.0974,0.6081,9.9793,-4.8189,9.909,-3.0108
13.8,0.0079,0.6771,10.0194,-6.0704,7.6016,-5.4513
13.82,-0.0252,0.4558,10.085,-3.3781,6.9079,-2.9915
13.84,-0.137,0.3822,10.3073,-7.7081,8.8392,-4.3612
13.86,-0.1577,0.5149,10.2805,-10.347,8.1309,-1.0575
13.88,-0.1525,0.4851,10.2082,-10.9137,3.4192,-3.3692
13.9,-0.2781,0.4981,10.2048,-6.1974,7.2022,-2.9289
13.92,-0.1889,0.505,10.2798,-11.2365,5.4727,0.7894
13.94,-0.1946,0.4895,10.3988,-12.7578,8.1145,0.0901
13.96,-0.1677,0.3015,10.3202,-9.2545,11.2171,-0.9707
13.98,-0.2028,0.2216,10.4174,-12.5737,7.6917,2.4566
14.0,-0.0874,0.2874,10.3251,-12.6513,9.2408,3.652
14.02,-0.142,0.4463,10.2529,-7.0736,11.054,2.3642
14.04,-0.2827,0.4222,10.2707,-17.7438,6.5402,2.9869
