time_s,Ax,Ay,Az,Gx,Gy,Gz
0.0,0.0212,-0.6349,9.772,3.4424,-5.8441,6.3155
0.02,0.1341,-0.5253,9.8748,4.1447,-11.2401,3.0098
0.04,0.1066,-0.4954,9.8557,4.7938,-10.0993,3.6985
0.06,0.0206,-0.3525,10.0201,5.2366,-9.3233,4.7644
0.08,0.1556,-0.3153,10.1091,7.4662,-3.556,4.8468
0.1,0.1361,-0.4108,10.32,9.0835,-8.0398,1.0932
0.12,0.1711,-0.2795,10.2852,8.2946,-4.7327,2.6872
0.14,0.1856,-0.3475,10.224,7.6611,-5.1351,0.8249
0.16,0.2534,-0.2637,10.2421,7.3652,-7.255,2.3666
0.18,0.2209,-0.3744,10.4063,13.6883,-10.3312,1.2929
0.2,0.2046,-0.4094,10.4035,12.3515,-8.4269,-1.2004
0.22,0.2147,-0.477,10.3589,11.3222,-8.2899,-1.3581
0.24,0.1087,-0.2938,10.204,11.9769,-5.2134,1.4161
0.26,0.2334,-0.4413,10.3992,8.2345,-7.6195,0.6829
0.28,0.211,-0.4225,10.2378,7.5888,-8.6598,-1.2119
0.3,0.1768,-0.5094,10.154,11.181,-8.9564,-2.5603
0.32,0.1452,-0.4444,10.1156,6.5647,-8.8257,-3.0079
0.34,0.0274,-0.4522,10.079,4.6203,-5.9165,-5.7078
0.36,0.1253,-0.4313,10.0395,8.3307,-4.8519,-3.644
0.38,0.0171,-0.5579,9.896,1.2351,-6.2475,-2.4982
0.4,0.0949,-0.5037,9.8333,1.5895,-10.4239,-2.7254
0.42,-0.0568,-0.6871,9.7757,-0.3783,-9.6092,-5.045
0.44,-0.015,-0.607,9.9656,3.791,-8.1977,-4.8464
0.46,-0.2242,-0.576,10.0371,-1.6168,-10.7639,-5.1728
0.48,-0.0843,-0.6844,10.1748,-4.3693,-6.2971,-7.2832
0.5,0.016,-0.6151,10.1994,-3.443,-8.8698,-3.0366
0.52,-0.1107,-0.6731,10.2257,-9.5694,-8.4325,-3.765
0.54,-0.2443,-0.6194,10.2908,-9.7599,-8.1338,-3.1096
0.56,-0.2477,-0.5718,10.345,-12.582,-8.2381,0.4506
0.58,-0.0859,-0.8118,10.3921,-11.3532,-6.9165,-1.06
0.6,-0.2829,-0.6419,10.3881,-8.4094,-9.3459,-0.569
0.62,-0.2175,-0.7664,10.3651,-16.4678,-13.1923,-0.3504
0.64,-0.1112,-0.6502,10.3752,-13.4313,-8.3934,-0.4652
0.66,-0.3459,-0.6602,10.3418,-12.0406,-6.9948,-0.5279
0.68,-0.22,-0.6334,10.3286,-10.4697,-8.976,1.7029
0.7,-0.0756,-0.7467,10.2704,-8.7535,-8.4257,1.6638
0.72,-0.2045,-0.5416,10.1953,-12.7014,-10.5738,1.6232
0.74,-0.1781,-0.5782,10.1675,-4.5583,-8.3686,0.3162
0.76,-0.2203,-0.7357,10.1243,-5.1537,-7.8949,2.0205
0.78,-0.0436,-0.5508,9.9835,0.8073,-9.704,4.3086
0.8,-0.017,-0.6061,9.8695,-7.0819,-10.0128,3.2679
0.82,0.0147,-0.6195,9.9274,-7.2793,-6.8028,6.4325
0.84,0.0847,-0.5411,9.9065,0.4849,-7.4365,6.4042
0.86,0.0009,-0.4813,9.9813,-2.4345,-10.1249,6.3537
0.88,0.2138,-0.3901,10.0441,3.0028,-4.7051,3.148
0.9,0.0981,-0.4123,10.0132,4.36,-9.9766,5.4809
0.92,0.02,-0.4001,10.2198,10.4499,-8.9933,3.8869
0.94,0.1903,-0.511,10.1692,10.4394,-5.8962,4.6479
0.96,0.0629,-0.4513,10.2536,6.9392,-8.0054,3.1022
0.98,0.1852,-0.3828,10.2948,12.043,-7.0495,3.0973
1.0,0.3386,-0.436,10.278,9.1752,-9.3458,2.1507
1.02,0.2808,-0.3231,10.3954,9.6106,-9.2435,2.4144
1.04,0.2264,-0.3282,10.404,14.9461,-6.7847,-0.235
1.06,0.1991,-0.3546,10.3996,13.6644,-8.7772,0.1409
1.08,0.2087,-0.4772,10.3064,10.967,-5.7385,-0.8449
1.1,0.1301,-0.2959,10.3331,12.7606,-9.2326,0.7982
1.12,0.2154,-0.4884,10.2205,10.9322,-7.1083,-1.5785
1.14,0.0927,-0.4179,10.2145,9.3356,-8.0954,-2.7879
1.16,0.0996,-0.3843,10.1204,9.7076,-9.3724,-4.137
1.18,-0.0182,-0.4342,10.0623,9.2666,-10.1642,-4.4041
1.2,0.0608,-0.4685,9.9573,-1.3527,-10.0498,-3.5303
1.22,0.0392,-0.4538,9.8629,3.0686,-8.5952,-2.6359
1.24,-0.0642,-0.5203,9.8283,0.159,-6.175,-4.4401
1.26,-0.0299,-0.5576,9.8065,2.6184,-4.6044,-5.4604
1.28,-0.04,-0.6578,9.8497,-1.4879,-7.5221,-1.8393
1.3,-0.0536,-0.6649,9.9665,-4.3595,-9.5719,-4.8056
1.32,-0.1324,-0.662,9.9946,-6.8388,-8.3608,-3.5259
1.34,-0.1755,-0.6742,10.1419,-7.5265,-8.1762,-3.453
1.36,-0.1687,-0.7004,10.1895,-12.4886,-9.0539,-4.0406
1.38,-0.1461,-0.6366,10.2808,-8.871,-6.7703,-1.87
1.4,-0.1629,-0.7503,10.3409,-14.2141,-5.9251,-1.6939
1.42,-0.0134,-0.6912,10.2941,-9.4531,-10.5983,-2.2355
1.44,-0.1944,-0.7186,10.3461,-14.7556,-12.2147,-0.3294
1.46,-0.1758,-0.6762,10.45,-11.0569,-12.287,2.9346
1.48,-0.2031,-0.7854,10.3518,-7.6195,-7.2164,-0.6316
1.5,-0.2269,-0.5689,10.3946,-12.4327,-10.2409,1.4556
1.52,-0.1111,-0.5565,10.274,-9.1466,-9.3098,2.0332
1.54,-0.067,-0.6706,10.1735,-8.7147,-6.774,1.6289
1.56,-0.1432,-0.69,10.1916,-7.8344,-5.5065,2.2172
1.58,-0.1701,-0.5601,10.189,-13.4305,-9.3502,2.1025
1.6,-0.0173,-0.7088,10.1799,-9.0219,-5.1153,5.6763
1.62,-0.0225,-0.5788,9.8868,-5.6006,-8.9009,3.846
1.64,-0.081,-0.486,9.9665,-5.2073,-4.7544,4.6417
1.66,0.0392,-0.5672,9.8447,0.538,-9.0072,4.4618
1.68,0.088,-0.4648,9.8406,5.8608,-7.5848,6.4887
1.7,0.0764,-0.4507,9.9483,2.8024,-7.8613,2.63
1.72,0.201,-0.5489,9.952,1.9651,-14.1641,5.2301
1.74,-0.0083,-0.5073,10.1538,11.9765,-9.8035,3.5332
1.76,0.1449,-0.3504,10.207,2.7646,-9.0614,0.7758
1.78,0.1756,-0.4035,10.2011,13.9394,-8.9146,3.9386
1.8,0.2896,-0.393,10.2563,11.8643,-6.4327,2.8
1.82,0.0209,-0.3676,10.3198,11.1741,-7.2755,2.1933
1.84,0.0599,-0.5046,10.3208,7.9502,-7.5015,1.2916
1.86,0.1457,-0.364,10.3044,14.8285,-5.9687,2.6464
1.88,0.2026,-0.3854,10.3486,12.0966,-8.4941,0.5167
1.9,0.2899,-0.3354,10.3387,13.0206,-8.5707,0.8537
1.92,0.1253,-0.4974,10.2442,13.5629,-5.8702,-1.1022
1.94,0.1567,-0.3777,10.3835,10.9258,-4.5983,-1.7888
1.96,0.0753,-0.4738,10.3019,9.1759,-5.8744,-2.9308
1.98,0.2391,-0.4363,10.1528,9.3085,-8.9129,-3.6606
2.0,0.284,-0.4207,10.193,9.7181,-10.2291,-4.1976
2.02,0.1036,-0.3694,10.0894,4.3308,-4.9573,-2.5757
2.04,0.0662,-0.4663,10.0127,6.9977,-7.5097,-4.1049
2.06,0.0526,-0.5771,9.7994,2.3459,-6.914,-5.2242
2.08,0.0802,-0.5731,9.8023,-0.5169,-11.1488,-2.0144
2.1,-0.1439,-0.5827,9.7729,-6.6041,-10.0928,-4.5237
2.12,-0.0539,-0.6044,9.9559,-6.8802,-7.3597,-3.521
2.14,-0.1538,-0.5816,10.0203,-4.5478,-7.1201,-3.49
2.16,-0.1546,-0.5574,10.1156,-7.0316,-9.5934,-4.0275
2.18,-0.0843,-0.7279,10.2639,-4.6001,-8.284,-2.5697
2.2,-0.2674,-0.7718,10.1992,-8.4992,-9.7231,-2.5801
2.22,-0.237,-0.7825,10.3626,-13.6228,-6.4673,-4.6149
2.24,-0.3429,-0.7639,10.39,-10.8076,-6.3078,1.5201
2.26,-0.1676,-0.6853,10.3125,-15.4692,-4.048,1.8436
2.28,-0.1932,-0.8241,10.2691,-11.7393,-7.1008,0.5127
2.3,-0.2628,-0.6431,10.3062,-12.966,-6.8947,1.1866
2.32,-0.2519,-0.6154,10.2881,-11.7611,-1.8355,-0.9398
2.34,-0.1193,-0.7928,10.305,-7.8726,-9.494,1.0291
2.36,-0.231,-0.6547,10.2714,-13.1241,-5.7583,1.7292
2.38,-0.0442,-0.6634,10.285,-10.0308,-5.9631,3.3893
2.4,-0.0682,-0.5512,10.2081,-6.0122,-8.4314,1.4269
2.42,-0.1785,-0.6219,10.1809,-4.1171,-7.1157,-0.7787
2.44,-0.0642,-0.6381,10.0737,-6.8102,-5.2008,3.1307
2.46,-0.1174,-0.6365,10.0063,-3.8453,-11.1449,6.2868
2.48,-0.0547,-0.7697,9.9288,0.1719,-6.957,5.246
2.5,-0.0299,-0.6979,9.754,1.4082,-8.0238,2.4942
2.52,0.0451,-0.5089,9.8399,2.2436,-6.7763,1.6144
2.54,0.0184,-0.5797,9.9185,4.7547,-7.7695,2.8121
2.56,0.0448,-0.3778,10.0417,2.8176,-9.218,4.2515
2.58,0.0563,-0.5487,10.1581,10.1587,-9.3976,2.2153
2.6,0.0264,-0.4699,10.1944,7.0325,-7.5233,4.3172
2.62,0.0864,-0.4783,10.277,12.0452,-6.1494,0.9454
2.64,0.1657,-0.2958,10.3335,16.9341,-9.1077,0.3782
2.66,0.1612,-0.3595,10.4515,11.0352,-5.3362,1.6092
2.68,0.0531,-0.2843,10.3043,9.2402,-10.0268,1.7356
2.7,0.1089,-0.4156,10.3234,12.5223,-7.1507,-2.2287
2.72,0.1848,-0.416,10.355,10.7147,-8.2047,-0.0144
2.74,0.2058,-0.4537,10.3334,14.6612,-7.2719,-2.8053
2.76,0.2819,-0.2901,10.327,10.9656,-6.0474,-3.0803
2.78,0.2141,-0.48,10.3265,11.0595,-6.7083,-0.3583
2.8,0.1008,-0.3207,10.3258,10.4517,-9.1873,-4.9337
2.82,0.1575,-0.4391,10.2198,9.7675,-8.7742,-1.7393
2.84,0.0081,-0.4562,10.0471,5.4114,-6.5054,-2.139
2.86,-0.0355,-0.4409,9.9999,2.9323,-10.8989,-5.4251
2.88,0.0288,-0.5863,10.0657,1.6157,-5.777,-3.903
2.9,0.0832,-0.5214,9.8164,3.8366,-8.6118,-1.9864
2.92,-0.0386,-0.5893,9.8165,-0.0334,-7.2606,-6.2404
2.94,0.1505,-0.5449,9.8591,-1.0817,-10.3343,-6.5051
2.96,-0.1659,-0.7186,9.9706,-1.28,-10.2725,-5.3738
2.98,-0.0395,-0.5019,10.0072,-6.6879,-11.4387,-1.9261
3.0,-0.161,-0.4872,10.0066,-4.903,-5.4678,-4.6609
3.02,-0.1578,-0.6185,10.229,-7.2528,-9.1247,-2.8384
3.04,-0.3511,-0.7614,10.2584,-11.1245,-7.4906,-1.6959
3.06,-0.2447,-0.666,10.3275,-9.0359,-5.38,-3.2856
3.08,-0.202,-0.6477,10.3276,-8.6155,-5.3248,0.7456
3.1,-0.2167,-0.6523,10.3332,-10.7892,-5.1323,-1.2746
3.12,-0.1322,-0.6291,10.368,-18.8829,-11.6508,-2.0411
3.14,-0.1684,-0.6241,10.3113,-7.1261,-9.5165,0.084
3.16,-0.1168,-0.7678,10.2862,-8.5088,-8.7853,-1.2645
3.18,-0.1761,-0.8926,10.3378,-10.0788,-5.3683,0.0491
3.2,-0.2065,-0.7553,10.28,-9.3372,-5.3238,0.3073
3.22,-0.106,-0.804,10.1933,-5.3497,-8.8914,2.7272
3.24,-0.0714,-0.6478,10.2506,-8.2751,-7.9764,2.7279
3.26,-0.1487,-0.6368,10.0701,-4.075,-9.856,1.7004
3.28,-0.0662,-0.4892,9.9735,-1.5304,-6.5582,3.488
3.3,0.097,-0.5289,10.0258,-4.5459,-7.4046,2.8848
3.32,-0.0065,-0.5243,9.907,3.2783,-6.9685,2.9676
3.34,-0.0439,-0.6247,9.8233,-0.1801,-10.5545,2.8838
3.36,0.0261,-0.6762,9.9595,-1.8111,-9.1299,5.6844
3.38,0.0805,-0.5493,10.0148,5.4404,-8.8716,4.661
3.4,0.0943,-0.4484,10.1652,3.6136,-6.1186,2.2808
3.42,0.173,-0.4421,10.1497,4.0665,-9.2434,3.2405
3.44,0.2047,-0.4917,10.21,13.2939,-6.4919,0.0511
3.46,0.2896,-0.4088,10.3286,9.3545,-6.8748,3.8986
3.48,0.2211,-0.3015,10.2723,10.2843,-9.6966,1.4821
3.5,0.1876,-0.3296,10.2977,12.0966,-10.2787,5.2481
3.52,0.1666,-0.4387,10.446,12.2839,-9.0317,-0.8916
3.54,0.4169,-0.4664,10.3618,12.1602,-8.2828,0.1509
3.56,0.082,-0.4109,10.3548,14.0851,-10.7847,-1.0576
3.58,0.1675,-0.349,10.2552,12.4471,-8.2362,-1.6582
3.6,0.1342,-0.4254,10.2647,8.4271,-7.75,-1.7383
3.62,0.1954,-0.5263,10.1828,11.5891,-9.3746,0.5748
3.64,0.1562,-0.3093,10.2238,3.3437,-6.0258,0.6669
3.66,0.0328,-0.5574,10.2026,6.5644,-9.0471,-3.3317
3.68,0.0777,-0.569,9.9842,7.5443,-8.9056,-7.0185
3.7,0.1338,-0.5059,9.9409,6.354,-6.7843,-2.5202
3.72,0.0509,-0.6373,9.7947,6.8829,-8.3434,-4.7634
3.74,0.0052,-0.7111,9.8032,0.9282,-8.6707,-5.4931
3.76,-0.0652,-0.668,9.8422,-1.0013,-8.9347,-4.1034
3.78,-0.1511,-0.6635,9.8917,-4.161,-10.7208,-4.7005
3.8,0.0172,-0.6903,10.0171,-3.0047,-12.0223,-4.9651
3.82,-0.0926,-0.6041,10.105,-5.5391,-8.5432,-2.5438
3.84,-0.1902,-0.894,10.1125,-8.9078,-10.4866,-2.7252
3.86,-0.1633,-0.6441,10.2535,-8.7334,-8.0506,-0.5783
3.88,-0.2409,-0.6706,10.2776,-10.486,-4.5153,-2.9035
3.9,-0.0636,-0.8073,10.3451,-10.8281,-8.5271,-2.6723
3.92,-0.1049,-0.6396,10.3139,-15.3994,-4.6651,-0.3256
3.94,-0.1472,-0.5595,10.3334,-11.598,-9.5799,-2.5675
3.96,-0.2917,-0.5944,10.343,-10.87,-9.377,-1.027
3.98,-0.138,-0.6891,10.3778,-14.769,-5.6384,1.8071
4.0,-0.1749,-0.6838,10.2952,-14.2013,-3.5266,0.9422
4.02,-0.3017,-0.6902,10.2311,-8.7731,-5.1403,1.1481
4.04,-0.2225,-0.7374,10.4607,-10.4105,-11.8014,2.0035
4.06,-0.2637,-0.5738,10.2261,-10.3281,-6.1013,0.223
4.08,-0.2189,-0.6954,10.1779,-10.6873,-8.6635,3.2667
4.1,-0.0994,-0.5921,9.9819,-3.7587,-7.9201,4.8831
4.12,-0.0261,-0.6277,10.0542,-4.1438,-6.5371,1.8239
4.14,-0.0062,-0.5225,9.9147,-1.3967,-6.043,6.8978
4.16,0.0027,-0.5475,9.7908,-1.0725,-11.4717,3.0815
4.18,0.1401,-0.5906,9.9183,3.7952,-8.9889,3.5056
4.2,-0.0114,-0.4947,9.9168,2.5076,-10.3855,6.0155
4.22,0.1237,-0.4689,9.8122,-3.0381,-10.2264,3.2748
4.24,0.1374,-0.4199,10.0186,2.7367,-4.8967,4.9508
4.26,0.1562,-0.3879,10.1844,10.4544,-8.6766,3.5723
4.28,0.2149,-0.2985,10.2412,8.1591,-9.69,1.3357
4.3,0.1027,-0.3002,10.289,12.1178,-8.0356,1.0142
4.32,0.118,-0.374,10.3504,17.0972,-9.719,0.9347
4.34,0.2895,-0.4153,10.3429,13.7068,-5.6279,0.6627
4.36,0.1781,-0.5052,10.3975,12.6844,-10.5317,2.5568
4.38,0.2677,-0.4689,10.3543,12.8433,-10.3207,0.8884
4.4,0.167,-0.3972,10.2962,8.0788,-10.7898,-1.25
4.42,0.2116,-0.4082,10.3411,8.4561,-6.3731,-0.9752
4.44,0.2989,-0.3761,10.2472,8.9212,-7.3682,-3.2243
4.46,0.2043,-0.4893,10.2851,10.9949,-10.5555,-6.6915
4.48,0.1971,-0.403,10.1429,9.132,-8.7437,-3.0531
4.5,0.0181,-0.4575,10.1194,7.8897,-8.7514,-3.2993
4.52,0.0927,-0.3364,9.9977,6.841,-5.7613,-5.8172
4.54,0.1007,-0.5307,9.9476,7.0855,-11.9445,-3.438
4.56,0.1358,-0.5397,9.9199,-0.506,-6.8329,-1.049
4.58,0.1455,-0.4573,9.8916,0.3929,-9.1972,-4.3211
4.6,0.0855,-0.5668,9.8425,2.1737,-5.1122,-2.467
4.62,-0.0446,-0.6423,9.937,-4.2895,-8.6822,-5.3736
4.64,-0.1069,-0.5379,10.0444,-7.7534,-9.1445,-4.1376
4.66,-0.1207,-0.6184,10.2031,-6.8681,-9.2625,-2.851
4.68,-0.0779,-0.4989,10.2278,-7.0654,-7.3521,-1.1522
4.7,-0.026,-0.6366,10.2741,-12.4851,-10.5796,-0.7396
4.72,-0.2613,-0.6799,10.3204,-14.7749,-6.9786,-3.601
4.74,-0.164,-0.5731,10.271,-7.4931,-10.0416,-2.3585
4.76,-0.2221,-0.8256,10.222,-9.0028,-9.763,-2.79
4.78,-0.1681,-0.7273,10.457,-11.0694,-6.5244,-1.8792
4.8,-0.1521,-0.9107,10.3678,-10.0175,-8.2996,1.2484
4.82,-0.1241,-0.5918,10.4096,-18.8844,-8.3661,1.3326
4.84,-0.2211,-0.6966,10.3556,-12.9253,-7.2708,1.9063
4.86,-0.159,-0.6222,10.2153,-10.9458,-6.1476,-0.6527
4.88,-0.1423,-0.6616,10.1671,-9.4303,-6.6073,0.9932
4.9,-0.0708,-0.7139,10.1379,-11.3105,-10.1851,2.7666
4.92,-0.0546,-0.7899,10.0168,-7.367,-9.8101,3.6829
4.94,0.0055,-0.6438,10.0315,-7.5024,-7.8136,2.9626
4.96,-0.0434,-0.7123,9.9791,-3.0892,-8.086,2.7288
4.98,0.0261,-0.5337,9.9211,1.2542,-6.4681,2.5343
5.0,-0.0229,-0.5746,9.8659,-2.5344,-3.5965,5.4894
5.02,0.1396,-0.5093,9.9995,-3.027,-9.3373,4.5836
5.04,0.0029,-0.5867,10.031,7.8198,-10.627,4.4197
5.06,0.1292,-0.3922,10.0338,6.6056,-10.0848,2.9267
5.08,0.1042,-0.4004,10.001,3.0494,-9.5756,3.8773
5.1,-0.0149,-0.3965,10.118,8.215,-1.9678,2.4201
5.12,0.1503,-0.3748,10.1735,9.8109,-7.8113,0.4691
5.14,0.2441,-0.4945,10.347,9.2674,-10.5147,3.7643
5.16,0.2093,-0.3948,10.3826,7.293,-8.0277,5.2313
5.18,0.0761,-0.3759,10.2907,11.2961,-8.9966,0.3527
5.2,0.0667,-0.4439,10.2747,15.3135,-5.1495,-0.7507
5.22,0.0711,-0.4497,10.3689,12.5147,-4.7183,-0.0572
5.24,0.17,-0.2502,10.3729,12.4519,-6.5658,1.6275
5.26,0.2216,-0.4797,10.2844,10.8877,-7.7752,-3.4734
5.28,0.2165,-0.5446,10.133,11.0807,-8.2229,0.0358
5.3,0.1834,-0.3391,10.1933,8.7959,-8.8959,-2.3448
5.32,0.2477,-0.5923,10.1406,6.57,-5.957,-2.3673
5.34,0.1166,-0.4029,10.0968,6.5752,-7.4666,-3.2475
5.36,0.0773,-0.4806,10.0111,5.5244,-9.2044,-1.1523
5.38,0.0257,-0.5221,10.0023,1.2178,-4.0353,-1.2344
5.4,0.0512,-0.3519,9.9186,-2.3788,-6.6531,-7.344
5.42,-0.0703,-0.4905,9.8845,2.2947,-7.4146,-1.8798
5.44,-0.2155,-0.531,9.9005,-2.1747,-5.7595,-4.3515
5.46,-0.0968,-0.5874,9.9474,-8.4297,-10.2277,-1.5267
5.48,-0.1039,-0.5326,10.1103,-7.2963,-9.8038,-0.7955
5.5,-0.1291,-0.5335,10.0092,-12.6465,-8.84,-3.1354
5.52,-0.0602,-0.6107,10.1809,-4.0627,-9.7247,-2.0134
5.54,-0.3083,-0.624,10.2275,-6.1348,-5.0319,-2.2908
5.56,-0.1189,-0.5959,10.2659,-12.89,-5.9863,-1.8761
5.58,-0.1772,-0.6772,10.2062,-9.5657,-10.073,-2.6593
5.6,-0.2458,-0.7258,10.2821,-14.3132,-8.6911,-1.2375
5.62,-0.2368,-0.6851,10.3175,-14.0632,-5.5469,-0.4865
5.64,-0.2787,-0.789,10.4133,-14.4648,-4.9443,1.7824
5.66,-0.2397,-0.826,10.3747,-8.9758,-7.3014,1.6517
5.68,-0.0882,-0.7022,10.2007,-8.4948,-9.2959,1.9365
5.7,-0.2496,-0.7586,10.2325,-11.7884,-6.3782,1.046
5.72,-0.1627,-0.683,10.2074,-9.8684,-7.0074,4.2093
5.74,-0.2221,-0.7727,10.1961,-4.2994,-9.1037,2.0228
5.76,-0.0802,-0.698,10.0374,-2.9693,-4.2973,2.4757
5.78,-0.0259,-0.4267,9.9509,-5.3656,-7.7087,3.0415
5.8,-0.052,-0.4665,9.9755,-0.694,-8.4249,3.9644
5.82,0.0044,-0.5426,9.9195,0.2034,-8.5363,4.3989
5.84,0.0032,-0.5612,9.792,-0.0045,-8.6717,5.2203
5.86,0.1497,-0.3987,9.992,7.2956,-9.9786,4.5352
5.88,0.1098,-0.5476,10.1801,5.6439,-7.7019,3.4092
5.9,0.2331,-0.6883,10.0109,6.2165,-8.8165,4.0672
5.92,0.1155,-0.645,10.1822,10.364,-6.7053,2.8689
5.94,0.2478,-0.2457,10.1575,11.3605,-7.929,6.0852
5.96,0.106,-0.3661,10.2454,9.8318,-5.8518,3.3699
5.98,0.1927,-0.4029,10.2124,7.2137,-10.3827,1.7379
6.0,0.0665,-0.3929,10.225,13.5995,-5.0643,3.4528
6.02,0.0535,-0.4138,10.3858,12.1559,-5.0922,-0.347
6.04,0.2355,-0.3914,10.3522,14.678,-5.3369,-1.0311
6.06,0.2715,-0.5109,10.4086,15.5106,-4.0917,1.0486
6.08,0.0919,-0.3691,10.3008,9.966,-11.0638,1.6153
6.1,0.1975,-0.4533,10.1825,6.6817,-4.8564,-2.3297
6.12,0.3051,-0.245,10.3206,9.0641,-7.5051,-2.2223
6.14,0.0821,-0.4708,10.3493,8.2245,-8.2204,-4.6383
6.16,0.1681,-0.4331,10.1431,7.4801,-6.8673,-5.5531
6.18,0.1969,-0.501,10.1198,8.0429,-9.2487,-5.5194
6.2,0.0533,-0.4923,10.0303,7.0961,-12.3088,-4.1099
6.22,0.0445,-0.5263,9.9671,0.8944,-6.9312,-3.6365
6.24,0.0788,-0.6881,9.9664,2.3931,-8.6944,-3.1883
6.26,0.0325,-0.6201,9.8344,-4.153,-7.1305,-4.803
6.28,-0.0622,-0.4911,9.9862,-5.1016,-5.5457,-2.2817
6.3,-0.0623,-0.603,10.0406,-5.0306,-8.5085,-2.5673
6.32,-0.1206,-0.7041,10.0087,-2.936,-10.8888,-4.7206
6.34,-0.0779,-0.5672,10.0945,-2.2965,-9.5898,-2.5564
6.36,-0.234,-0.7673,10.1924,-10.7503,-9.4377,-0.9504
6.38,-0.1595,-0.7597,10.2523,-10.2873,-6.1509,-4.0371
6.4,-0.1803,-0.6134,10.3199,-9.752,-6.6669,-1.1448
6.42,-0.2966,-0.6958,10.3533,-14.8995,-8.5697,-0.0003
6.44,-0.2659,-0.6563,10.4092,-10.3424,-5.5252,-0.9482
6.46,-0.2014,-0.7925,10.4049,-9.9319,-6.3898,-0.4245
6.48,-0.0929,-0.7369,10.3654,-8.6445,-8.6642,-0.0403
6.5,-0.2037,-0.8041,10.3781,-16.533,-12.2805,-1.9882
6.52,-0.1695,-0.7488,10.3347,-9.6573,-4.4035,2.4082
6.54,-0.2494,-0.6294,10.3093,-11.8231,-12.6547,0.7644
6.56,-0.1331,-0.7601,10.2577,-5.3982,-6.2553,5.5399
6.58,-0.0743,-0.6136,10.1525,-10.4013,-10.7143,2.4239
6.6,-0.0225,-0.58,10.0247,-0.2379,-8.0252,3.932
6.62,0.0483,-0.6013,9.9674,-4.1376,-8.0575,2.6419
6.64,0.0142,-0.6053,9.952,-7.5722,-6.4014,5.2681
6.66,-0.0422,-0.5224,9.8804,0.7553,-9.3677,6.3698
6.68,-0.0091,-0.4959,9.8388,1.5758,-8.705,3.9539
6.7,0.1436,-0.6538,9.9609,3.6245,-9.5277,4.1669
6.72,0.0576,-0.4848,10.0761,2.8326,-6.5988,3.3
6.74,0.0788,-0.4939,10.2032,5.3931,-5.344,2.316
6.76,0.1417,-0.5577,10.1788,5.6808,-4.6961,6.962
6.78,0.0453,-0.4354,10.0984,9.2512,-7.996,2.788
6.8,0.2112,-0.3145,10.3327,9.9639,-7.3898,2.5116
6.82,0.264,-0.4946,10.3391,8.9763,-6.2347,0.2788
6.84,0.1523,-0.4572,10.3542,10.222,-7.7331,0.0676
6.86,0.1263,-0.4139,10.3329,11.5099,-8.6073,0.0143
6.88,0.0798,-0.4734,10.2188,12.6329,-0.3501,-0.8947
6.9,0.2308,-0.3612,10.2782,9.5501,-9.5383,-2.0439
6.92,0.1811,-0.3343,10.3706,11.1999,-6.219,-1.387
6.94,0.2822,-0.3829,10.3014,11.1496,-7.2005,-2.3749
6.96,0.3239,-0.403,10.2208,16.4098,-10.6503,-1.44
6.98,0.0959,-0.4764,10.2776,8.4371,-7.9126,-4.8193
7.0,0.163,-0.4555,10.182,10.1854,-4.1222,-3.5515
7.02,0.1221,-0.5031,10.0045,8.2094,-7.608,-3.3324
7.04,0.0497,-0.4874,10.0859,5.6288,-8.4012,-2.8462
7.06,0.0641,-0.4426,9.8881,0.8894,-7.0602,-5.3696
7.08,0.1021,-0.5489,9.7892,1.4843,-7.4543,-2.1844
7.1,-0.0024,-0.5971,9.9,-1.4659,-8.0768,-3.2283
7.12,-0.0398,-0.5956,9.97,-5.3662,-6.6286,-2.6383
7.14,0.0146,-0.6294,10.035,-1.9124,-5.6384,-4.0105
7.16,-0.0174,-0.597,9.9616,-7.9838,-8.7658,-3.1159
7.18,-0.1197,-0.6115,10.2421,-9.8581,-7.9924,-1.5568
7.2,-0.2034,-0.7981,10.2649,-7.7125,-11.4642,-2.5191
7.22,-0.1985,-0.6185,10.3557,-10.9461,-7.1521,-2.4674
7.24,-0.2375,-0.6693,10.2941,-13.6653,-11.4681,-0.5634
7.26,-0.1898,-0.7835,10.3687,-16.7558,-10.08,-1.7441
7.28,-0.2804,-0.7009,10.3489,-14.935,-10.0458,-0.8497
7.3,-0.0128,-0.7669,10.4076,-14.1208,-11.1461,0.5009
7.32,-0.3401,-0.8808,10.2107,-10.1114,-11.1505,-0.4731
7.34,-0.1293,-0.6839,10.2418,-7.6575,-12.469,-1.4674
7.36,-0.2461,-0.5338,10.332,-5.3401,-10.1067,3.1673
7.38,-0.0729,-0.6834,10.2787,-9.1676,-4.4148,3.3288
7.4,-0.073,-0.7359,10.3273,-6.0506,-6.529,4.598
7.42,-0.2021,-0.744,10.1058,-2.8972,-9.737,1.2947
7.44,-0.0896,-0.4727,10.089,-3.2587,-6.914,4.3486
7.46,-0.0577,-0.616,9.9458,-5.5591,-10.3452,4.486
7.48,-0.0212,-0.5074,9.9613,-2.5399,-11.2106,4.927
7.5,-0.0275,-0.5976,9.865,0.0296,-6.065,3.6762
7.52,-0.0532,-0.4102,9.988,4.3455,-5.3923,4.1099
7.54,0.1472,-0.4792,9.7667,2.2768,-6.1726,7.7924
7.56,0.2114,-0.4003,10.1178,5.2898,-10.5322,4.7503
7.58,0.1799,-0.5094,10.087,6.0381,-9.0762,3.6306
7.6,0.1251,-0.5248,10.1647,11.2273,-6.1578,0.455
7.62,0.0508,-0.5442,10.2249,7.6473,-8.9094,4.4403
7.64,0.155,-0.4046,10.1995,6.3692,-8.1885,2.4631
7.66,0.2234,-0.5579,10.342,12.6659,-10.914,0.7164
7.68,0.2588,-0.4304,10.3565,14.8022,-8.1922,1.0866
7.7,0.2126,-0.3373,10.3424,9.4294,-7.4186,-0.0953
7.72,0.1464,-0.5064,10.3093,9.339,-9.6684,1.5122
7.74,0.1247,-0.4564,10.3623,7.4534,-8.2593,-4.2216
7.76,0.0974,-0.4002,10.3605,7.9215,-3.2076,-1.0596
7.78,0.1289,-0.4019,10.2919,8.711,-9.1263,-4.2476
7.8,0.0681,-0.3658,10.2287,11.5203,-6.1249,-3.4133
7.82,0.2184,-0.4769,10.1229,10.6264,-8.0107,-3.5679
7.84,0.1038,-0.2311,10.1363,5.4049,-9.4676,-1.8228
7.86,0.0576,-0.6019,9.9256,9.0068,-9.0653,-4.1456
7.88,-0.0122,-0.6203,9.9141,0.0206,-7.6669,-3.1423
7.9,0.0814,-0.4474,9.9507,2.5631,-4.9912,-1.0101
7.92,-0.0818,-0.6516,9.8911,0.3352,-9.8695,-5.2239
7.94,0.0091,-0.4698,9.9907,-3.6351,-8.4197,-1.2003
7.96,0.0285,-0.5997,10.0264,-5.6246,-8.9029,-3.7068
7.98,-0.1893,-0.6391,10.132,-5.4899,-11.3911,-2.6146
8.0,-0.1716,-0.6534,10.1659,-5.5942,-7.7036,-4.7464
8.02,-0.1645,-0.5867,10.2274,-7.0598,-9.6943,-1.5453
8.04,-0.2511,-0.6396,10.1677,-9.0471,-8.4125,-0.5435
8.06,-0.1263,-0.6892,10.3145,-12.4387,-8.3281,-0.0704
8.08,-0.1481,-0.608,10.338,-17.7815,-5.4132,-1.6457
8.1,-0.1568,-0.6882,10.4124,-9.0424,-5.342,-0.4557
8.12,-0.2185,-0.7586,10.3644,-8.8615,-9.8112,0.9248
8.14,-0.3713,-0.7588,10.4375,-10.8936,-9.3899,1.2071
8.16,-0.1822,-0.8472,10.3609,-9.8972,-6.0288,-0.1369
8.18,-0.1885,-0.7861,10.3433,-11.0872,-8.8142,0.2516
8.2,-0.1035,-0.7404,10.1658,-3.7585,-11.1759,6.339
8.22,-0.2725,-0.491,10.2632,-6.3568,-9.4468,2.1605
8.24,-0.1082,-0.613,10.1703,-9.7888,-11.0649,2.5814
8.26,-0.0658,-0.6064,10.058,-9.8124,-8.0723,3.3266
8.28,-0.1067,-0.6115,9.9519,-1.301,-4.8533,2.4203
8.3,-0.0133,-0.5132,9.8585,5.0536,-8.485,6.3372
8.32,-0.0721,-0.4694,9.9006,0.5312,-10.2466,4.6357
8.34,-0.0375,-0.5308,9.8874,1.9315,-7.059,4.267
8.36,0.1164,-0.4146,9.9089,2.9071,-8.6199,1.2803
8.38,0.1396,-0.5573,10.049,5.709,-9.9446,2.2128
8.4,0.1728,-0.573,10.0879,5.2861,-8.2019,3.03
8.42,0.0397,-0.4347,10.0492,10.623,-10.4424,5.819
8.44,0.1254,-0.4454,10.2579,12.1559,-5.7325,4.2023
8.46,0.2151,-0.2507,10.3275,6.9052,-8.2653,0.5616
8.48,0.2897,-0.3139,10.3286,15.5111,-10.5432,1.1776
8.5,0.1564,-0.4074,10.325,12.8709,-8.3443,2.1625
8.52,0.2476,-0.3475,10.2871,10.7137,-7.1967,1.2162
8.54,0.2031,-0.4005,10.3071,14.8946,-11.3417,-0.9078
8.56,0.1801,-0.3885,10.3058,13.1988,-5.8287,1.284
8.58,0.158,-0.2758,10.4245,14.4317,-8.7452,-1.6491
8.6,0.2885,-0.2696,10.3793,11.0837,-9.3113,-0.996
8.62,0.2187,-0.5283,10.3247,12.8787,-9.4262,0.57
8.64,0.1231,-0.4602,10.3147,5.944,-7.3375,-2.9175
8.66,0.1128,-0.401,10.1509,5.5769,-10.6714,-2.4257
8.68,0.0552,-0.3499,10.0188,7.8315,-8.4567,-4.9708
8.7,0.0135,-0.532,9.981,6.9462,-4.2844,-4.5969
8.72,-0.0008,-0.4817,9.9272,0.5367,-7.9633,-2.0623
8.74,0.079,-0.3661,9.8533,-2.6332,-9.0476,-1.7851
8.76,0.0271,-0.5912,9.8409,0.2558,-11.5051,-3.3113
8.78,0.0039,-0.5514,9.9175,-1.3349,-8.7482,-4.3508
8.8,-0.2033,-0.4548,10.0863,-1.9598,-9.8045,-4.9069
8.82,-0.1159,-0.4736,10.1158,-10.1592,-7.0287,-7.8248
8.84,-0.0728,-0.5613,10.1978,-6.5937,-3.999,-4.2058
8.86,-0.1363,-0.7104,10.2495,-9.5689,-10.3127,-4.1609
8.88,-0.1861,-0.7655,10.2665,-10.7833,-8.1593,-1.3649
8.9,-0.0935,-0.6436,10.3598,-12.5203,-6.7041,-4.3161
8.92,-0.1938,-0.7262,10.3529,-9.6902,-9.0425,-0.6636
8.94,-0.1827,-0.6673,10.3699,-12.8311,-6.9427,-1.3273
8.96,-0.2088,-0.6409,10.2635,-11.5966,-5.6408,-0.2588
8.98,-0.3094,-0.6043,10.3822,-12.8456,-10.2677,-1.3742
9.0,-0.2189,-0.654,10.4569,-9.6425,-3.7567,2.9128
9.02,-0.1793,-0.6531,10.2845,-16.5427,-7.9502,4.3326
9.04,-0.1535,-0.6266,10.1918,-12.4207,-7.0482,4.188
9.06,-0.1817,-0.7544,10.3103,-12.7343,-9.1538,4.6985
9.08,-0.1479,-0.63,10.0635,-7.7453,-7.1847,3.3636
9.1,-0.1156,-0.6064,10.0603,-7.6178,-8.0799,3.9405
9.12,-0.1756,-0.5855,9.9134,-9.4329,-8.874,4.2552
9.14,-0.0248,-0.5576,9.9477,-3.7165,-8.8091,4.7207
9.16,-0.0209,-0.5588,9.7527,-1.2617,-10.9037,1.4268
9.18,-0.1067,-0.6801,9.8637,0.4049,-6.6493,1.9852
9.2,-0.052,-0.4881,9.9851,-4.0325,-5.7486,1.2296
9.22,0.0599,-0.4939,10.0203,4.6179,-10.4112,3.8756
9.24,0.1304,-0.5017,10.1682,6.1099,-11.5776,2.7755
