time_s,Ax,Ay,Az,Gx,Gy,Gz
0.0,0.067,-0.5272,9.8976,-1.0034,-7.7907,4.2491
0.02,0.0352,-0.4778,9.824,3.5254,-12.6546,7.3092
0.04,0.0676,-0.469,9.9439,1.3386,-4.9673,3.3346
0.06,0.001,-0.4571,10.0689,4.132,-10.2104,4.0143
0.08,0.0821,-0.4838,10.0272,6.5714,-7.7073,3.7265
0.1,0.1285,-0.4578,10.1447,13.8168,-8.2514,4.5003
0.12,0.2065,-0.4944,10.287,11.1666,-4.3277,2.2491
0.14,0.2807,-0.4416,10.3489,10.9384,-7.6035,0.8865
0.16,0.1007,-0.4346,10.4137,8.7431,-10.1404,1.5206
0.18,0.1646,-0.4083,10.308,10.5238,-7.8931,-1.1097
0.2,0.3097,-0.3159,10.421,9.4013,-6.4526,1.4143
0.22,0.2963,-0.3517,10.443,10.2035,-7.6535,-0.8197
0.24,0.1005,-0.4186,10.3934,12.9086,-9.2415,-0.6833
0.26,0.0719,-0.4256,10.3057,11.8951,-7.4376,-2.5739
0.28,0.1649,-0.5386,10.2441,9.722,-6.5518,-0.676
0.3,0.2393,-0.3341,10.1897,7.1994,-10.1252,-3.1492
0.32,0.111,-0.5707,10.1002,9.2098,-6.4328,-3.9718
0.34,0.096,-0.3122,10.0874,8.2434,-13.7053,-3.5589
0.36,0.0574,-0.5864,10.0598,5.1859,-6.8445,-1.3962
0.38,0.0949,-0.5797,10.0176,8.2914,-8.2046,-3.0725
0.4,0.068,-0.5493,9.8084,1.8222,-8.0668,-2.9827
0.42,0.0498,-0.6445,9.8532,-3.3506,-10.0016,-3.8916
0.44,0.0188,-0.6097,9.8924,-1.0861,-9.0747,-2.9487
0.46,-0.1736,-0.574,9.863,-5.8883,-6.6338,-6.5252
0.48,-0.2087,-0.5927,10.1111,-5.7036,-4.7639,-3.554
0.5,-0.0343,-0.6999,10.0554,-9.101,-8.5783,-4.7658
0.52,-0.1898,-0.6991,10.2622,-7.4553,-8.5829,-5.723
0.54,-0.146,-0.7136,10.2372,-9.2628,-10.8578,-2.0741
0.56,-0.2258,-0.6213,10.2184,-12.42,-7.0435,-1.2772
0.58,-0.1243,-0.6501,10.3257,-11.0037,-8.3038,-1.5178
0.6,-0.2037,-0.6391,10.3386,-13.0226,-8.3425,-0.1108
0.62,-0.347,-0.8435,10.4066,-13.3401,-9.0029,-0.8155
0.64,-0.1579,-0.7465,10.4027,-8.0473,-6.2502,2.0895
0.66,-0.2733,-0.6983,10.2913,-15.4585,-7.73,0.3696
0.68,-0.295,-0.6317,10.375,-9.0566,-4.2205,0.886
0.7,-0.2749,-0.6431,10.2486,-10.5561,-9.7541,0.4967
0.72,-0.1915,-0.6715,10.189,-13.5469,-9.3402,4.3006
0.74,-0.053,-0.683,10.1398,-6.193,-10.5393,4.3624
0.76,-0.0525,-0.6757,10.1173,-8.9667,-9.2088,2.3926
0.78,-0.1186,-0.6167,10.0718,-5.6412,-6.3611,4.0323
0.8,-0.0575,-0.7185,9.9996,0.4596,-8.6155,4.9299
0.82,0.1957,-0.4921,9.8346,-1.7284,-7.1446,1.7767
0.84,0.0234,-0.4864,9.9043,2.6897,-5.2778,5.4951
0.86,0.2378,-0.639,10.006,0.6912,-5.8979,3.7173
0.88,0.0489,-0.5474,10.041,5.5596,-8.364,6.5833
0.9,0.1355,-0.5659,10.2356,0.8103,-9.894,1.7263
0.92,0.0926,-0.4066,10.1415,10.1697,-8.869,3.3601
0.94,0.0943,-0.4195,10.1607,10.0865,-8.5144,3.068
0.96,0.253,-0.4141,10.2492,7.9979,-9.8269,2.4779
0.98,0.1156,-0.5026,10.3074,6.8316,-8.5281,0.773
1.0,0.0504,-0.518,10.3014,12.25,-10.9143,3.4408
1.02,0.1948,-0.4868,10.3497,12.469,-5.0524,2.4514
1.04,0.2055,-0.4932,10.3084,9.1944,-6.3689,2.7597
1.06,0.1582,-0.3667,10.359,9.4238,-5.9522,1.0045
1.08,0.1378,-0.3463,10.3207,14.2211,-10.6483,-3.2499
1.1,0.0934,-0.2398,10.3705,12.7141,-7.4133,-4.1379
1.12,0.1771,-0.4653,10.1769,12.122,-4.8309,-0.1753
1.14,0.1841,-0.4875,10.2005,9.3894,-10.9501,-2.652
1.16,0.103,-0.3965,10.2566,7.7201,-6.7535,-1.5544
1.18,0.0728,-0.5885,10.0232,5.9171,-7.6236,-4.9391
1.2,0.1114,-0.4589,10.0104,4.9489,-8.7901,-3.6119
1.22,0.0989,-0.5437,9.9198,3.0235,-6.1612,-5.1208
1.24,0.0173,-0.5161,9.8308,-0.7579,-10.0055,0.6707
1.26,0.0382,-0.6112,9.837,-0.922,-8.4944,-2.4664
1.28,-0.0087,-0.4881,9.8638,-4.2481,-11.4717,-2.173
1.3,-0.0803,-0.744,10.0591,-2.5363,-9.287,-3.306
1.32,-0.073,-0.6122,10.2376,-3.1535,-11.0518,-5.1128
1.34,-0.2057,-0.7352,10.1211,-3.7671,-8.4179,-1.6626
1.36,-0.0899,-0.7272,10.2256,-9.9083,-9.7669,-1.4527
1.38,-0.0759,-0.7266,10.2585,-14.4322,-10.6849,-2.2513
1.4,-0.2192,-0.7576,10.2001,-11.1421,-12.6243,-0.7048
1.42,-0.0714,-0.7186,10.325,-11.2586,-7.5504,-1.9985
1.44,-0.1449,-0.5789,10.3565,-15.3193,-8.2405,-0.6447
1.46,-0.188,-0.7892,10.2624,-10.8862,-4.2063,0.6132
1.48,-0.1636,-0.6659,10.4137,-12.2181,-9.3008,0.3055
1.5,-0.1974,-0.7553,10.329,-13.4821,-10.2721,0.2345
1.52,-0.1732,-0.6352,10.2615,-11.0526,-5.9157,1.3094
1.54,-0.1164,-0.577,10.2667,-12.9203,-10.7096,3.3559
1.56,-0.1313,-0.6663,10.2001,-11.4023,-9.5482,3.3845
1.58,-0.173,-0.6511,10.1169,-8.4946,-10.1656,2.14
1.6,-0.1792,-0.6449,10.0559,-3.9169,-10.0394,4.1055
1.62,-0.0686,-0.4784,9.9577,-5.5081,-7.823,6.9666
1.64,0.0226,-0.6615,9.8779,-1.2068,-10.6139,4.5271
1.66,-0.049,-0.5785,9.8695,0.7821,-7.0755,4.1417
1.68,-0.0423,-0.4788,9.972,0.2925,-10.5127,5.7612
1.7,-0.1224,-0.4664,9.9185,9.2472,-10.0932,2.2677
1.72,0.0487,-0.6438,9.9259,2.8426,-5.8071,3.2518
1.74,0.1307,-0.4427,10.1598,10.3193,-7.0813,6.3451
1.76,0.2046,-0.3445,10.2254,12.5774,-8.2421,3.5175
1.78,0.2183,-0.4937,10.2339,6.8156,-9.642,1.5446
1.8,0.1276,-0.3877,10.2128,9.2072,-6.6362,4.1414
1.82,0.2029,-0.3651,10.3748,14.1849,-10.7664,2.5969
1.84,0.3172,-0.5268,10.4482,8.1102,-6.706,2.0637
1.86,0.2861,-0.4787,10.365,9.6462,-9.2051,-0.4975
1.88,0.3306,-0.319,10.3178,9.7107,-7.5994,-0.594
1.9,0.1695,-0.4568,10.3216,15.8528,-12.0758,-2.0031
1.92,0.1144,-0.5,10.3593,14.7411,-4.7122,-0.8285
1.94,0.3945,-0.5689,10.2662,12.9505,-7.9569,-1.2202
1.96,0.2139,-0.4119,10.1874,12.957,-10.7224,-6.8563
1.98,0.0913,-0.3801,10.199,9.0719,-12.1752,0.0007
2.0,0.1825,-0.543,10.0776,4.8731,-9.8055,-5.605
2.02,0.0229,-0.3627,10.0203,8.9938,-5.4387,-6.0877
2.04,0.1591,-0.521,9.9121,6.4082,-10.7568,-3.6814
2.06,0.1483,-0.6166,9.8572,-3.179,-6.4484,-5.8255
2.08,-0.0786,-0.4265,9.8261,3.053,-5.7861,-5.147
2.1,-0.1198,-0.5255,9.8088,-4.6426,-8.1964,-3.751
2.12,0.006,-0.7118,9.9308,-4.7727,-12.2108,-5.0766
2.14,-0.1168,-0.6357,9.9259,-5.6366,-8.5,-3.4168
2.16,-0.1333,-0.7446,10.0297,-2.8512,-7.39,-1.8136
2.18,-0.1697,-0.5694,10.2254,-8.6607,-9.2153,-4.7979
2.2,-0.2326,-0.605,10.2152,-7.3921,-6.4244,-1.4891
2.22,-0.1211,-0.6861,10.2724,-5.5891,-6.3607,-0.8278
2.24,-0.225,-0.6824,10.2784,-12.5792,-8.2138,-2.8851
2.26,-0.2518,-0.631,10.2426,-13.1341,-12.8614,-2.1209
2.28,-0.1737,-0.575,10.4001,-11.2405,-9.5525,1.6993
2.3,-0.1842,-0.645,10.2976,-11.0761,-10.4542,-1.2333
2.32,-0.2163,-0.7445,10.3288,-13.6166,-8.5557,1.7001
2.34,-0.1645,-0.8189,10.2901,-11.1522,-8.0416,1.0799
2.36,-0.1958,-0.6423,10.2936,-7.4665,-5.5808,3.7358
2.38,-0.1616,-0.6378,10.2181,-8.3398,-8.9759,1.1229
2.4,-0.1723,-0.6188,10.1642,-5.6253,-8.6333,2.4148
2.42,-0.0923,-0.6426,10.0906,-0.1069,-11.461,4.1332
2.44,-0.122,-0.5531,9.9434,-4.4158,-4.4038,2.557
2.46,0.0814,-0.6395,10.0076,-6.8534,-4.4809,5.1771
2.48,0.1218,-0.6043,9.9602,0.4106,-7.6744,3.1302
2.5,-0.022,-0.4901,9.8635,1.3227,-5.1485,4.7939
2.52,-0.0054,-0.5922,9.8416,0.0238,-9.3082,4.6084
2.54,0.1147,-0.6223,9.9307,4.4191,-9.6899,6.5753
2.56,0.0193,-0.5308,10.0622,5.4888,-11.0747,6.8471
2.58,0.1094,-0.4584,10.1081,6.3238,-7.691,6.6519
2.6,0.152,-0.2867,10.2009,9.9943,-9.4408,0.8673
2.62,0.1805,-0.4879,10.1503,7.2567,-11.2359,1.2868
2.64,0.1923,-0.3656,10.228,9.9727,-5.229,2.5179
2.66,0.2079,-0.1599,10.3565,14.8989,-8.5583,2.9822
2.68,0.0359,-0.4668,10.3759,12.1777,-4.3174,-0.2277
2.7,0.2831,-0.5855,10.3884,3.5066,-6.3349,-0.6629
2.72,0.2604,-0.3263,10.4321,11.5247,-6.2057,-0.1154
2.74,0.2421,-0.3962,10.3,15.5955,-4.9628,-3.2037
2.76,0.1476,-0.4326,10.3146,14.2899,-7.3549,-0.299
2.78,0.1505,-0.4517,10.2678,10.248,-9.9121,-3.357
2.8,0.2724,-0.4407,10.3126,8.4715,-5.4474,-1.7647
2.82,0.0699,-0.3935,10.2137,5.0046,-8.5897,-1.7782
2.84,0.0491,-0.3657,10.1302,8.7462,-10.5468,-3.5373
2.86,-0.0297,-0.3227,10.0572,10.843,-7.0951,-5.0859
2.88,0.0768,-0.5469,9.9237,1.8023,-9.5225,-5.8949
2.9,-0.0994,-0.5897,9.8675,3.8902,-10.5246,-0.6194
2.92,0.0574,-0.583,9.7727,0.8892,-10.3409,-3.9667
2.94,-0.0326,-0.4927,9.8617,-1.3235,-6.9794,-4.2743
2.96,-0.127,-0.4699,10.0059,0.7801,-6.9077,-4.9303
2.98,-0.2631,-0.5906,10.0096,-3.0517,-10.004,-2.9782
3.0,-0.0886,-0.698,10.1402,-11.3079,-7.1028,-3.7866
3.02,-0.2194,-0.7128,10.2173,-8.0334,-9.4943,-0.7208
3.04,-0.0947,-0.7004,10.2174,-7.3079,-7.6032,-5.5461
3.06,-0.0938,-0.7396,10.3083,-10.3076,-8.7855,-1.5416
3.08,-0.2164,-0.6043,10.3168,-10.639,-7.2471,-3.2181
3.1,-0.2826,-0.5901,10.4454,-11.4562,-9.2253,-3.6574
3.12,-0.1462,-0.8383,10.3662,-10.922,-6.9774,0.3875
3.14,-0.1394,-0.8069,10.3238,-14.8688,-6.3632,0.9962
3.16,-0.3208,-0.6428,10.3237,-16.6106,-4.7706,-2.1227
3.18,-0.1249,-0.6869,10.2133,-12.1585,-9.3991,-0.0627
3.2,-0.1794,-0.6768,10.1673,-10.4845,-12.1113,1.1179
3.22,-0.1458,-0.743,10.1646,-8.6712,-6.6201,3.6563
3.24,-0.0596,-0.6591,10.142,-5.5678,-8.2053,1.9233
3.26,-0.1504,-0.6897,10.0995,-5.0742,-8.0144,1.345
3.28,-0.1618,-0.7673,10.0119,-6.9534,-6.1966,6.8855
3.3,-0.0971,-0.5548,9.9235,-2.3732,-11.1943,2.5234
3.32,-0.101,-0.5575,9.9219,-1.7038,-5.9118,2.7941
3.34,0.0653,-0.4458,9.7827,1.0023,-8.9605,3.8865
3.36,0.1847,-0.44,9.9436,0.1439,-3.9522,1.409
3.38,0.2067,-0.5329,10.0136,4.3172,-4.6549,3.8836
3.4,0.2037,-0.5157,10.1011,4.8612,-8.533,-0.3841
3.42,0.1326,-0.4347,10.1191,9.4962,-5.7102,3.2643
3.44,0.0632,-0.27,10.172,8.2189,-9.2637,1.1245
3.46,0.1893,-0.3971,10.3794,9.9274,-10.2247,1.6309
3.48,0.1529,-0.4186,10.2988,8.7012,-8.9521,0.9147
3.5,0.1531,-0.3699,10.3213,13.2941,-10.1215,-0.0205
3.52,0.1418,-0.4136,10.3704,13.9188,-7.5684,-0.4187
3.54,0.2032,-0.3955,10.348,13.5509,-5.3249,1.309
3.56,0.1661,-0.3744,10.362,8.3039,-8.6181,1.7151
3.58,0.059,-0.5203,10.3529,9.4678,-9.2351,-2.2671
3.6,0.2456,-0.3026,10.2943,14.3079,-6.7886,0.1486
3.62,0.2032,-0.4592,10.2153,10.6199,-9.9901,-1.4492
3.64,0.0793,-0.4633,10.2201,11.8931,-7.471,-3.3601
3.66,0.1354,-0.6266,10.1121,10.1476,-10.0046,-3.388
3.68,0.1337,-0.5011,10.0663,4.6817,-6.8199,-5.2024
3.7,-0.0159,-0.4722,10.04,3.6601,-6.6617,-6.1479
3.72,-0.0141,-0.4938,9.9575,2.7613,-7.8564,-6.7132
3.74,-0.0175,-0.4934,9.8298,1.7169,-9.3869,-1.3874
3.76,0.0583,-0.5944,9.8328,-5.3266,-6.405,-3.7423
3.78,0.0296,-0.6116,9.9109,1.0524,-9.0285,-4.0662
3.8,-0.0213,-0.69,10.0359,-4.7263,-7.4356,-3.3825
3.82,-0.0749,-0.652,10.0956,-6.1491,-8.5598,-2.1603
3.84,-0.0836,-0.5403,10.1368,-13.5143,-7.377,-0.443
3.86,-0.142,-0.7398,10.3417,-6.7157,-8.2002,-4.5131
3.88,-0.2196,-0.6319,10.241,-7.7784,-8.053,-2.0564
3.9,-0.2797,-0.6809,10.3531,-9.7963,-8.1697,-4.1985
3.92,-0.1306,-0.8471,10.3257,-10.3446,-9.9684,-0.0366
3.94,-0.2353,-0.7399,10.374,-11.2143,-4.6545,1.3723
3.96,-0.2909,-0.7474,10.4269,-14.9902,-6.9472,2.3269
3.98,-0.0977,-0.7288,10.5026,-11.2031,-6.3604,2.7268
4.0,-0.0642,-0.7402,10.4073,-10.0847,-9.4571,2.3034
4.02,-0.1273,-0.7503,10.3403,-12.1355,-4.8478,-0.5647
4.04,-0.1987,-0.5549,10.2352,-9.27,-10.2632,-1.3169
4.06,-0.1415,-0.7314,10.1607,-10.057,-6.8831,2.775
4.08,-0.152,-0.8044,10.2918,-7.8585,-10.4771,4.3137
4.1,0.0365,-0.6733,9.9861,-7.9071,-8.6615,4.4005
4.12,0.0215,-0.6716,9.9564,1.7541,-9.1249,2.9243
4.14,-0.0882,-0.5532,9.8876,-7.6486,-4.0898,1.1384
4.16,-0.0386,-0.4573,9.8952,0.0959,-3.3499,4.372
4.18,-0.0256,-0.5413,9.8523,-3.6211,-5.84,2.2034
4.2,0.0172,-0.4954,9.8746,4.3332,-9.4197,5.6983
4.22,0.0279,-0.4544,9.8988,3.4683,-9.9822,4.7902
4.24,0.0825,-0.4315,10.0864,4.532,-8.5738,3.7408
4.26,0.1724,-0.5017,10.2742,5.6777,-7.595,1.008
4.28,0.1042,-0.4009,10.2475,7.9467,-9.552,4.375
4.3,0.1855,-0.4436,10.2167,8.4503,-8.4392,2.0014
4.32,0.1863,-0.3263,10.2966,11.1548,-8.1012,1.3395
4.34,0.2123,-0.4388,10.3621,9.0138,-8.7943,0.9493
4.36,0.2495,-0.3107,10.3332,7.6941,-6.297,1.111
4.38,0.1535,-0.3843,10.3711,7.7199,-6.8222,0.131
4.4,0.2013,-0.4515,10.3898,10.9238,-12.2879,-2.0072
4.42,0.2091,-0.3491,10.2363,12.9032,-10.2349,-0.7027
4.44,0.2588,-0.4551,10.2847,4.9093,-6.3817,-1.7285
4.46,0.1085,-0.3296,10.2103,7.1944,-11.2072,-2.5728
4.48,0.1039,-0.3223,10.2397,11.4568,-8.9876,-1.2637
4.5,0.1821,-0.5094,10.1167,5.4767,-7.8716,-1.505
4.52,-0.0719,-0.3913,10.1016,6.4337,-11.5963,-3.822
4.54,0.0546,-0.456,10.0054,9.1183,-5.6167,-0.3868
4.56,0.1318,-0.5308,9.9505,0.7937,-6.3998,-3.3819
4.58,-0.0685,-0.4549,9.8834,-0.4475,-8.5449,-3.9642
4.6,0.0979,-0.5733,9.848,0.1123,-9.1557,-4.4951
4.62,-0.0511,-0.5285,9.8389,-5.502,-10.3621,-4.5112
4.64,-0.0688,-0.4949,10.0337,-5.2304,-5.2841,-6.6456
4.66,-0.0016,-0.6974,10.067,-8.2242,-7.6358,-2.1502
4.68,-0.2141,-0.4932,10.1841,-6.4685,-6.9769,-3.862
4.7,-0.1928,-0.7611,10.2283,-12.4889,-3.4043,-0.7236
4.72,-0.1134,-0.4969,10.2247,-10.5904,-10.8308,0.6677
4.74,-0.3011,-0.7673,10.309,-5.8338,-10.6255,-4.7209
4.76,-0.1007,-0.7424,10.2815,-10.3397,-6.5407,-3.8773
4.78,-0.1781,-0.7125,10.3573,-16.5174,-4.9733,2.7317
4.8,-0.1442,-0.7319,10.3959,-11.1345,-8.166,2.1399
4.82,-0.177,-0.6971,10.4264,-14.7525,-9.4009,-0.386
4.84,-0.2065,-0.8782,10.265,-13.1484,-6.233,1.1353
4.86,-0.2185,-0.708,10.2538,-11.6276,-6.4871,1.1567
4.88,-0.0928,-0.6199,10.2783,-10.4365,-11.6269,1.9465
4.9,-0.0758,-0.6918,10.2203,-5.938,-7.4208,0.459
4.92,-0.134,-0.542,10.149,-10.2781,-8.2039,2.2554
4.94,0.0944,-0.5966,9.9964,-7.6419,-5.7895,1.8339
4.96,-0.0998,-0.6112,10.0499,-6.4251,-9.3764,2.3394
4.98,-0.0424,-0.5649,9.996,-1.5441,-10.9027,4.5805
5.0,0.0875,-0.5547,9.8167,-4.5768,-11.0154,6.1852
5.02,0.016,-0.5529,9.8713,-0.3223,-7.1495,4.5706
5.04,0.0268,-0.6573,9.8896,1.5015,-10.741,2.3356
5.06,0.0227,-0.562,10.1478,6.1554,-10.8526,5.1007
5.08,0.1282,-0.4709,9.9724,5.7342,-6.7568,3.4177
5.1,0.0703,-0.4429,10.2538,8.378,-9.9001,3.895
5.12,0.1835,-0.3597,10.2283,11.0066,-12.3062,4.8171
5.14,0.1721,-0.4538,10.3464,11.4006,-8.7931,3.9006
5.16,0.156,-0.3002,10.313,8.8075,-8.165,0.0336
5.18,0.2059,-0.6155,10.3368,11.1211,-9.4741,0.8657
5.2,0.1402,-0.3925,10.31,10.4421,-10.0149,3.7773
5.22,0.2226,-0.3554,10.3139,5.1962,-4.0379,1.2609
5.24,0.2034,-0.5011,10.3378,11.1827,-11.2094,2.3195
5.26,0.0388,-0.2871,10.3088,12.3341,-5.9927,-0.6702
5.28,0.2442,-0.4356,10.3202,10.6441,-11.4072,-0.8719
5.3,0.024,-0.4336,10.2584,9.4578,-9.4296,-3.7826
5.32,0.101,-0.5247,10.2044,9.3273,-6.6358,-3.5028
5.34,0.1634,-0.4797,10.1209,6.2469,-6.3151,-4.7002
5.36,-0.0453,-0.5163,10.0955,8.2914,-7.7155,-3.7312
5.38,0.0532,-0.3264,9.9912,3.5889,-11.2218,-6.0843
5.4,0.0023,-0.4885,9.9181,2.0767,-7.3569,-4.2917
5.42,0.0421,-0.6585,9.8963,1.2789,-9.6019,-2.3089
5.44,0.0204,-0.5793,9.9415,-2.02,-4.4682,-4.1465
5.46,-0.0051,-0.5418,9.8967,-5.5367,-8.2299,-3.3706
5.48,-0.1342,-0.4827,9.9257,-3.4821,-6.2758,-2.6276
5.5,-0.0473,-0.7447,10.098,-9.6743,-8.9462,-4.3494
5.52,-0.0827,-0.5928,10.2431,-6.817,-10.3757,-3.9382
5.54,-0.0997,-0.6937,10.1882,-6.7269,-9.8148,-1.938
5.56,-0.2032,-0.6569,10.2324,-9.4775,-8.8139,-2.605
5.58,-0.1432,-0.7365,10.3635,-15.6649,-7.1421,-4.4129
5.6,-0.3042,-0.7394,10.4123,-9.8804,-9.1987,-2.1495
5.62,-0.1935,-0.7038,10.3655,-13.5942,-7.0464,0.3363
5.64,-0.1412,-0.5674,10.3785,-14.7625,-6.3368,1.4434
5.66,-0.2152,-0.7007,10.3571,-12.4619,-8.7758,1.6107
5.68,-0.2919,-0.7071,10.2771,-10.7678,-5.2666,1.9526
5.7,-0.2313,-0.8728,10.3882,-10.2427,-4.4644,2.3749
5.72,-0.1277,-0.601,10.2275,-13.197,-5.9893,4.0811
5.74,-0.1576,-0.7268,10.1688,-5.1906,-9.4426,3.5193
5.76,-0.0473,-0.7701,10.1157,-7.7408,-7.402,3.656
5.78,0.0398,-0.5761,9.9779,-6.8767,-10.5141,3.676
5.8,-0.0126,-0.5443,9.9662,-6.2682,-10.1221,1.3988
5.82,-0.0362,-0.5939,9.8043,0.8635,-10.3591,5.181
5.84,-0.0811,-0.5621,9.8058,1.7145,-8.2984,4.5386
5.86,0.1033,-0.3965,9.848,6.5809,-9.1231,4.4144
5.88,0.117,-0.4797,10.0412,3.4623,-6.9243,2.9967
5.9,0.01,-0.377,10.0103,5.4273,-7.0969,4.6862
5.92,0.1018,-0.4686,10.1165,6.7016,-7.7528,3.2749
5.94,0.1117,-0.5585,10.1995,7.9881,-9.1648,2.0557
5.96,0.18,-0.3414,10.2366,10.6238,-7.9428,2.1997
5.98,0.1076,-0.1958,10.2856,10.3519,-7.5681,-0.5581
6.0,0.1185,-0.4323,10.2972,11.2982,-7.3381,1.556
6.02,0.1445,-0.2276,10.356,6.7638,-7.5968,3.0804
6.04,0.234,-0.4239,10.2903,11.3845,-5.1161,0.7467
6.06,0.169,-0.5253,10.3481,13.7082,-6.7679,-1.2026
6.08,0.1341,-0.3691,10.3305,8.3786,-8.4167,-1.0492
6.1,0.1487,-0.2948,10.3481,12.8079,-4.5247,-3.0185
6.12,0.1819,-0.2567,10.262,7.5423,-8.0154,-3.2019
6.14,0.0501,-0.3884,10.2253,7.2644,-9.1037,-3.5381
6.16,0.0795,-0.4627,10.1408,9.2643,-6.2709,-3.0938
6.18,0.0834,-0.3992,10.0507,4.1856,-5.3798,-5.2471
6.2,0.1027,-0.4204,10.0426,3.7568,-8.856,-4.8941
6.22,0.0063,-0.4684,10.0078,4.0661,-7.6854,-2.2261
6.24,-0.0484,-0.6161,9.8748,-3.4924,-5.7647,-5.7285
6.26,-0.1589,-0.5636,9.8864,-1.8374,-8.6103,-6.9453
6.28,-0.0724,-0.5084,9.8697,-5.5348,-6.132,-5.5888
6.3,-0.1026,-0.5858,9.914,-6.5901,-7.8095,-4.5989
6.32,-0.0713,-0.6169,10.0732,-5.7495,-8.5309,-1.4982
6.34,-0.2911,-0.5455,10.0605,-8.9672,-6.6928,0.5066
6.36,-0.1419,-0.6415,10.2527,-8.1638,-9.3376,-2.2173
6.38,0.0116,-0.7831,10.3301,-12.1196,-5.9583,-4.7476
6.4,-0.1839,-0.558,10.2954,-6.0462,-8.5119,-0.2904
6.42,-0.1795,-0.7626,10.2907,-13.4268,-10.7841,-2.5671
6.44,-0.2727,-0.7364,10.3586,-14.5703,-8.7014,-1.8179
6.46,-0.2381,-0.6422,10.4283,-16.0832,-7.879,0.2939
6.48,-0.2204,-0.8031,10.3073,-13.0922,-7.6614,3.2032
6.5,-0.048,-0.7794,10.3507,-10.6086,-10.5203,-0.8062
6.52,-0.3273,-0.7348,10.1937,-13.0802,-7.7856,-0.9521
6.54,-0.2134,-0.6265,10.2199,-11.1174,-6.8471,3.1096
6.56,-0.0654,-0.596,10.0804,-10.4849,-6.9837,1.9262
6.58,-0.0805,-0.7108,10.0238,-6.1003,-7.0514,0.565
6.6,-0.092,-0.6595,10.0017,-10.3747,-7.8681,2.67
6.62,-0.0586,-0.5492,9.982,-7.8656,-7.3583,4.8263
6.64,-0.0584,-0.5962,9.9034,-5.8761,-5.5598,5.321
6.66,-0.0022,-0.5627,9.8166,-1.7782,-7.4849,3.1109
6.68,0.0259,-0.5791,9.9008,1.2377,-8.1009,3.9239
6.7,0.0879,-0.5969,10.023,5.5734,-8.4825,2.6729
6.72,0.1386,-0.5044,10.0533,6.0908,-5.5417,4.4775
6.74,0.15,-0.4911,10.1342,6.9597,-6.1617,5.4524
6.76,0.2315,-0.4486,9.9944,7.267,-8.0714,6.1911
6.78,0.0549,-0.4089,10.3508,6.1551,-11.2712,3.0103
6.8,0.116,-0.4077,10.3578,11.9261,-9.6628,-0.2796
6.82,0.1612,-0.5409,10.322,11.2824,-7.5764,2.3646
6.84,0.1855,-0.3461,10.3353,12.0974,-5.1027,-0.8507
6.86,0.2374,-0.2652,10.4049,9.9955,-7.1742,-0.0208
6.88,0.1605,-0.3437,10.3962,13.9768,-6.7927,2.6751
6.9,0.2602,-0.4193,10.2605,10.3655,-6.48,1.8644
6.92,0.1662,-0.4008,10.2886,8.511,-8.4255,0.0125
6.94,0.0713,-0.4776,10.3252,9.5877,-9.4926,-1.532
6.96,0.1005,-0.5,10.3396,9.9878,-5.3045,-2.6635
6.98,0.1212,-0.3829,10.1621,10.403,-8.6189,-2.3759
7.0,0.2253,-0.6008,10.0845,6.8584,-7.2329,-0.5969
7.02,0.2081,-0.4307,10.0202,4.6107,-7.6112,-2.2754
7.04,0.0593,-0.4532,10.0618,3.5572,-3.334,-2.5717
7.06,0.1243,-0.4782,9.8986,4.0913,-7.4173,-4.6713
7.08,0.0944,-0.6368,9.8531,2.398,-8.1521,-1.0698
7.1,-0.1203,-0.605,9.8832,-1.8702,-9.8092,-5.3395
7.12,-0.0997,-0.4851,9.9802,-4.8435,-4.9597,-5.1027
7.14,-0.1531,-0.4925,10.0816,-6.1478,-6.8679,-3.6639
7.16,-0.0385,-0.4849,10.0854,-3.2829,-7.5,-4.8747
7.18,-0.2593,-0.4655,10.1645,-10.6057,-7.5746,-4.2984
7.2,-0.2876,-0.458,10.2502,-10.962,-7.3298,-2.6233
7.22,-0.0833,-0.7412,10.2859,-10.4748,-8.2731,-1.1463
7.24,-0.2635,-0.7294,10.3117,-13.376,-10.085,-1.0976
7.26,-0.2706,-0.7026,10.3879,-7.8819,-8.5111,0.8724
7.28,-0.2164,-0.6164,10.3028,-12.9641,-11.5528,-0.1374
7.3,-0.0983,-0.6829,10.3506,-16.4245,-5.237,1.0396
7.32,-0.1107,-0.6199,10.4794,-10.101,-4.4462,-0.734
7.34,-0.2066,-0.5998,10.4377,-11.2798,-9.65,-0.4442
7.36,-0.1503,-0.5375,10.2207,-13.2938,-4.7946,1.3122
7.38,-0.2108,-0.4558,10.1947,-5.68,-5.7787,3.0663
7.4,-0.2063,-0.4823,10.1395,-7.1168,-7.999,3.8456
7.42,-0.2319,-0.4846,10.0308,-6.6032,-6.3388,3.8744
7.44,-0.124,-0.5831,10.1177,-7.6865,-4.7679,3.9135
7.46,-0.0421,-0.5374,9.9622,-7.9772,-6.5791,3.9592
7.48,-0.0257,-0.664,9.8756,3.8401,-5.9134,5.056
7.5,0.0181,-0.5477,9.8228,-0.2726,-6.8481,6.4933
7.52,-0.045,-0.461,9.924,1.4649,-9.4013,2.5908
7.54,-0.0703,-0.5576,10.0159,0.1115,-5.6788,4.2325
7.56,0.0787,-0.5057,10.1225,3.8744,-7.9462,2.6438
7.58,0.1208,-0.2748,10.1253,9.359,-12.5297,1.5816
7.6,0.0544,-0.3507,10.1783,5.5212,-6.9402,1.0246
7.62,0.1763,-0.5091,10.2089,8.6038,-8.0098,3.0272
7.64,0.2249,-0.3591,10.2896,11.9495,-6.8735,3.7067
7.66,0.1245,-0.3598,10.3586,14.9668,-10.2847,1.1267
7.68,0.1808,-0.4391,10.2453,11.8565,-6.9337,1.8265
7.7,0.207,-0.4022,10.4072,18.7105,-7.3832,0.6642
7.72,0.2105,-0.4484,10.3093,11.1777,-6.9505,-0.4061
7.74,0.1509,-0.5414,10.3701,10.828,-11.1822,0.2799
7.76,-0.0207,-0.397,10.3273,8.7081,-7.2168,-2.093
7.78,0.1235,-0.4,10.2064,13.5927,-8.8786,-1.5469
7.8,-0.0008,-0.4349,10.3326,13.2118,-4.9059,-1.5778
7.82,0.1622,-0.4595,10.0569,9.22,-10.9956,-3.0877
7.84,0.1619,-0.4196,10.159,5.5252,-4.7626,-2.0767
7.86,0.0566,-0.4665,10.1196,5.1427,-5.9782,-2.7624
7.88,0.0155,-0.4335,9.9452,2.99,-9.6163,-4.58
7.9,-0.0117,-0.4173,9.8986,-0.4165,-6.897,-5.6794
7.92,0.0919,-0.5681,9.9042,-0.143,-7.8547,-3.7467
7.94,0.0295,-0.5371,10.0195,-3.8212,-8.3622,-5.6758
7.96,-0.0593,-0.4266,9.9574,0.4346,-11.61,-4.8881
7.98,-0.1326,-0.5773,10.084,-9.4306,-8.2094,-5.3199
8.0,-0.181,-0.7503,10.1484,-8.8304,-7.3793,-5.3967
8.02,-0.2206,-0.7586,10.1633,-13.3287,-10.2081,-3.4091
8.04,-0.1705,-0.6675,10.3353,-11.793,-8.2298,-3.0332
8.06,-0.2294,-0.7356,10.2769,-6.88,-8.3031,-1.0513
8.08,-0.1265,-0.7887,10.3378,-12.0042,-9.8855,0.4891
8.1,-0.1649,-0.7005,10.3259,-12.545,-9.1616,-0.5622
8.12,-0.2077,-0.7867,10.3285,-16.0252,-7.4842,-0.3126
8.14,-0.2918,-0.7676,10.4414,-11.4474,-10.3508,1.2173
8.16,-0.2907,-0.6738,10.3594,-8.0826,-6.8808,1.2605
8.18,-0.1282,-0.6323,10.3464,-11.7221,-7.6966,1.036
8.2,-0.174,-0.5709,10.3258,-7.88,-11.1982,3.7624
8.22,-0.2445,-0.6629,10.1473,-12.7118,-6.9203,2.0103
8.24,-0.1762,-0.7343,10.0603,-10.2861,-6.0331,4.1247
8.26,0.0068,-0.5737,10.1266,-6.8687,-10.2764,4.1667
8.28,0.0065,-0.556,10.0794,-1.695,-10.0244,0.5373
8.3,-0.0627,-0.6475,9.9764,-0.3957,-5.1751,3.8157
8.32,-0.2282,-0.5958,9.8811,-4.1873,-5.7509,3.1484
8.34,-0.0147,-0.6598,9.6954,-0.0214,-7.5658,5.4605
8.36,0.1033,-0.5791,9.8492,2.4933,-8.1338,5.94
8.38,0.0742,-0.5222,10.0485,4.0453,-7.1824,3.1833
8.4,0.1417,-0.3508,10.0818,7.9082,-9.7809,2.862
8.42,0.185,-0.4448,10.0616,9.2503,-7.3961,2.9493
8.44,0.1656,-0.4702,10.198,6.9238,-7.101,2.6819
8.46,0.1017,-0.4267,10.1116,7.2828,-5.8472,2.8441
8.48,0.1495,-0.3899,10.2007,13.7876,-4.6853,0.6541
8.5,0.2765,-0.4208,10.3407,12.1308,-9.9715,1.4587
8.52,0.1856,-0.505,10.3909,13.2222,-8.5345,-0.3377
8.54,0.1718,-0.3521,10.4605,10.7097,-5.3778,-2.6267
8.56,0.2378,-0.6333,10.3907,12.7741,-7.4554,-0.7266
8.58,0.2014,-0.4593,10.3499,10.9657,-8.1766,-2.8318
8.6,0.2238,-0.2464,10.2717,13.5991,-5.6849,-2.8557
8.62,0.2594,-0.39,10.3333,5.9365,-4.3736,0.6352
8.64,0.1254,-0.4353,10.2256,10.8246,-8.1641,-5.5733
8.66,0.1681,-0.2809,10.0172,11.1631,-7.4636,-5.4953
8.68,0.0443,-0.4529,10.1221,5.0569,-8.6541,-3.0397
8.7,0.0271,-0.4754,10.0529,3.0968,-7.2607,-3.5861
8.72,0.1362,-0.6334,9.9081,0.344,-11.1359,-7.4824
8.74,0.0885,-0.5168,9.8254,3.5465,-6.0004,-5.3559
8.76,0.0272,-0.5456,9.8127,-1.0425,-8.6782,-2.7399
8.78,-0.0141,-0.5492,9.8713,-6.7551,-6.1643,-4.8697
8.8,-0.0333,-0.5435,9.9551,-5.2175,-8.3772,-4.1586
8.82,-0.1632,-0.5829,9.9893,-7.6539,-7.4419,-1.7625
8.84,-0.0727,-0.6482,10.162,-8.4989,-7.7055,-4.3899
8.86,-0.1682,-0.6336,10.1857,-9.8496,-8.9544,-1.8594
8.88,-0.0294,-0.6086,10.2821,-12.5087,-8.6221,-5.4055
8.9,-0.1549,-0.6046,10.3748,-8.6997,-9.6732,-1.937
8.92,-0.2499,-0.703,10.2799,-8.9227,-3.5632,-2.9067
8.94,-0.1946,-0.7097,10.3445,-15.9488,-5.603,0.6854
8.96,-0.0588,-0.6762,10.3033,-13.0026,-5.8,2.6871
8.98,-0.1301,-0.7416,10.3643,-14.2396,-6.7972,0.1224
9.0,-0.1367,-0.7962,10.3774,-8.544,-8.1785,0.2592
9.02,-0.2045,-0.782,10.3298,-11.1043,-9.3388,0.101
9.04,-0.1811,-0.7803,10.3122,-7.6719,-9.1809,0.6356
9.06,-0.179,-0.6085,10.199,-7.8781,-8.7689,2.894
9.08,-0.1121,-0.7698,10.0679,-8.5368,-4.9754,3.0905
9.1,-0.1998,-0.7724,10.0571,-9.333,-11.0307,4.904
9.12,-0.1362,-0.4787,10.0292,-13.0393,-9.1928,3.2579
9.14,0.0032,-0.5333,9.9291,0.2081,-9.1055,3.9666
9.16,-0.0989,-0.5087,9.8021,-0.0581,-7.8657,1.654
9.18,-0.0291,-0.3985,9.7919,2.4281,-8.2658,5.5276
9.2,0.0398,-0.7292,9.818,0.4966,-9.2765,4.3191
9.22,0.1192,-0.4241,10.0898,5.9727,-8.1335,4.9945
9.24,0.1123,-0.6122,10.1927,6.7233,-9.8714,1.1023
9.26,0.1027,-0.386,10.0523,1.3654,-8.7988,3.3787
9.28,0.1405,-0.4011,10.2111,11.499,-9.3491,1.9693
9.3,0.1193,-0.2912,10.2763,9.0492,-11.5582,0.2947
9.32,0.2208,-0.5141,10.3427,11.5682,-9.5893,1.5109
9.34,0.1643,-0.4749,10.3149,7.0263,-6.9551,3.2767
9.36,0.2326,-0.5014,10.3527,12.0707,-12.8523,2.0684
9.38,0.3123,-0.443,10.4072,7.0598,-6.0553,-0.2369
9.4,0.1959,-0.4695,10.2999,10.8835,-8.2099,-2.2326
9.42,0.2669,-0.5781,10.2857,8.6142,-7.3697,-0.8855
9.44,0.1312,-0.4385,10.293,13.469,-6.7776,-1.6359
9.46,0.1114,-0.3817,10.3438,12.2342,-10.1431,-0.3323
9.48,0.0673,-0.3509,10.2074,7.1649,-6.0629,-1.3337
9.5,0.1602,-0.4302,10.0802,10.2421,-7.715,-1.2808
9.52,-0.0139,-0.5087,10.1026,6.6664,-5.8989,-1.5155
9.54,0.1096,-0.4406,9.9774,6.812,-7.9615,-2.724
9.56,0.1491,-0.5993,9.993,2.4623,-7.1857,-6.0068
9.58,-0.1345,-0.6204,9.9023,0.3209,-2.6851,-4.7785
9.6,-0.0415,-0.5957,9.8291,-5.3559,-7.9871,-4.5501
9.62,-0.0687,-0.4526,10.0394,-1.4616,-5.0718,-1.8736
9.64,-0.0831,-0.6364,10.0529,-6.0613,-9.4334,-3.8826
9.66,-0.1337,-0.6141,10.0573,-8.2924,-5.1459,-2.5629
9.68,-0.24,-0.7055,10.1559,-10.199,-7.4687,-3.5002
9.7,-0.1746,-0.6882,10.2405,-13.9815,-7.1588,-1.1293
9.72,-0.1408,-0.6614,10.2311,-14.7395,-8.9419,-0.9132
9.74,-0.0761,-0.6847,10.2311,-12.1819,-6.6482,0.7993
9.76,-0.2026,-0.8119,10.2886,-9.6424,-8.5332,0.9709
9.78,-0.2393,-0.5893,10.2333,-14.9763,-7.0824,0.5989
9.8,-0.1958,-0.6122,10.3577,-12.7881,-9.9002,0.5153
9.82,-0.2943,-0.7705,10.4493,-14.6255,-8.6152,2.9566
9.84,-0.1295,-0.698,10.3639,-13.6232,-7.2442,1.42
9.86,-0.1392,-0.6873,10.1018,-11.9668,-6.6467,2.7425
9.88,-0.0799,-0.6693,10.1953,-11.6652,-9.9404,0.8732
9.9,-0.1326,-0.6567,10.1952,-9.1665,-7.778,1.1051
9.92,-0.1447,-0.6162,10.1511,-7.3405,-7.4382,6.7661
9.94,-0.1729,-0.557,10.0409,-3.7422,-14.0652,2.0927
9.96,-0.1253,-0.7099,9.9208,-2.599,-9.9283,2.1264
9.98,-0.077,-0.5018,9.9335,0.2935,-5.6442,4.7844
10.0,0.0817,-0.4326,9.8279,-0.2009,-8.1409,4.3781
10.02,0.0775,-0.5945,9.9784,3.1848,-10.9494,6.1931
10.04,0.1627,-0.5874,9.9613,7.4887,-8.5589,3.5724
10.06,0.07,-0.5335,10.0358,9.2125,-6.1392,-0.0232
10.08,0.0126,-0.4182,10.1528,5.7572,-8.8695,4.2091
10.1,0.2474,-0.3221,10.0485,6.2806,-9.5719,0.6181
10.12,0.0017,-0.2783,10.23,10.2051,-6.1196,2.7258
10.14,0.2533,-0.4804,10.2681,7.4458,-9.0617,3.8744
10.16,0.2036,-0.3557,10.3327,11.7127,-7.1359,3.3547
10.18,0.2238,-0.4436,10.3534,16.6672,-3.0883,0.4408
10.2,0.1338,-0.431,10.3661,15.6721,-6.8652,-1.8029
10.22,0.2255,-0.6099,10.2878,11.9459,-6.4316,-2.1394
10.24,0.313,-0.3735,10.3908,8.27,-6.2375,0.638
10.26,0.1474,-0.1702,10.3301,12.4186,-5.9485,-1.6618
10.28,0.1641,-0.3496,10.3308,12.4911,-7.2982,-1.1719
10.3,0.1814,-0.3236,10.338,8.2402,-7.4811,-3.0403
10.32,0.1586,-0.4355,10.1676,8.8572,-6.4055,-4.2296
10.34,0.106,-0.53,10.0557,3.6744,-10.4218,-4.711
10.36,0.1319,-0.3749,10.1947,5.8094,-7.5246,-1.3774
10.38,0.0053,-0.3775,10.0649,-1.304,-9.5983,-5.6877
10.4,0.0485,-0.4635,10.0398,-1.0456,-5.3618,-4.3831
10.42,0.0742,-0.5985,9.7612,2.0523,-5.2356,-1.8812
10.44,-0.0079,-0.5057,9.9395,-3.7473,-5.5938,-6.2466
10.46,-0.085,-0.69,10.0368,-5.427,-8.115,-2.1904
10.48,-0.1547,-0.6191,10.0867,-6.5138,-4.402,-0.8191
10.5,-0.0215,-0.6436,10.0454,-7.3285,-5.7141,-1.9426
10.52,-0.1035,-0.6943,10.2321,-11.3747,-6.4553,-2.2752
10.54,-0.1624,-0.8427,10.3353,-7.0595,-8.0284,-3.3188
10.56,-0.1229,-0.7146,10.3733,-10.3807,-6.473,-2.7573
10.58,-0.1503,-0.6658,10.3078,-4.4258,-9.3763,-2.4045
10.6,-0.2546,-0.6222,10.2867,-10.1364,-8.3396,0.5573
10.62,-0.2346,-0.7725,10.3596,-16.0389,-7.3075,0.6245
10.64,-0.2471,-0.6801,10.3641,-15.9291,-6.6047,1.0399
10.66,-0.1846,-0.7513,10.3598,-12.5715,-7.0881,3.1237
10.68,-0.1329,-0.5801,10.2114,-9.2738,-8.7217,0.0511
10.7,-0.2746,-0.7248,10.3034,-10.6901,-9.1674,2.0688
10.72,-0.1742,-0.5848,10.2523,-3.8791,-11.3573,1.1715
10.74,-0.0798,-0.6734,10.0479,-7.5793,-9.3288,-1.1736
10.76,-0.0769,-0.6714,10.0911,-4.3372,-9.6544,4.0259
10.78,-0.0205,-0.7112,9.9643,-1.5584,-9.8056,4.7751
10.8,-0.1304,-0.659,10.0057,-2.1349,-9.2349,3.9245
10.82,-0.0524,-0.5848,9.7969,0.9904,-7.9131,2.9134
10.84,0.1677,-0.5396,9.8526,2.7037,-9.0635,5.7856
10.86,0.0407,-0.5676,9.913,4.3811,-7.2673,6.0931
10.88,0.0547,-0.379,9.9469,5.1767,-6.3791,4.5795
10.9,0.2206,-0.4564,10.0758,9.1861,-6.066,5.8466
10.92,0.0575,-0.4865,10.1225,7.0488,-6.9578,0.9103
10.94,-0.0053,-0.3462,10.1092,9.163,-10.12,3.2588
10.96,0.0377,-0.498,10.343,10.1557,-7.226,0.1585
10.98,0.2065,-0.3282,10.3803,5.6469,-10.6764,1.34
11.0,0.1686,-0.4731,10.337,9.3303,-7.5171,4.6312
11.02,0.1454,-0.4342,10.3894,14.6644,-7.3227,-1.2335
11.04,0.2557,-0.4668,10.4335,10.2873,-5.344,-0.8527
11.06,0.1478,-0.3746,10.423,9.9425,-6.5856,-1.1828
11.08,0.1703,-0.3805,10.2922,12.1009,-9.2473,-1.2069
11.1,0.1322,-0.5419,10.3062,4.7841,-8.6794,-2.0407
11.12,0.2098,-0.3587,10.2332,14.0287,-5.9577,-1.2215
11.14,0.2505,-0.5932,10.1796,10.2456,-8.6907,-3.6788
11.16,0.1265,-0.4007,10.1814,6.4124,-9.0569,-3.6539
11.18,0.2114,-0.5551,10.1491,0.5932,-8.1193,-1.6119
11.2,-0.0886,-0.4876,10.0084,6.2262,-8.8934,-3.7956
11.22,-0.0005,-0.551,9.9532,4.6149,-8.4862,-1.8205
11.24,-0.1154,-0.4605,9.9305,0.4782,-6.7818,-7.2157
11.26,0.0131,-0.5315,9.8019,0.2528,-6.6769,-5.7058
11.28,-0.1858,-0.5763,9.8821,-0.0487,-7.337,-2.8305
11.3,-0.0099,-0.7004,10.0108,-4.6963,-6.4285,-4.5999
11.32,0.0068,-0.6338,10.1671,-7.2884,-9.1216,-2.1118
11.34,-0.0721,-0.5791,10.1014,-8.1422,-6.2262,-2.7611
11.36,-0.1358,-0.6478,10.1769,-10.3352,-11.7748,-0.6224
11.38,-0.1294,-0.6319,10.295,-6.9518,-8.359,-3.1781
11.4,-0.3278,-0.6393,10.3538,-10.7015,-6.4464,-0.0993
11.42,-0.1009,-0.7103,10.3696,-11.8451,-7.3125,-1.8565
11.44,-0.2165,-0.7159,10.3755,-6.6098,-8.0706,-0.0249
11.46,-0.2238,-0.8517,10.4538,-12.7388,-7.8166,1.3699
11.48,-0.285,-0.7999,10.3462,-9.9044,-11.1547,0.7402
11.5,-0.1744,-0.6683,10.3222,-15.6796,-5.2006,2.7905
11.52,-0.2423,-0.6987,10.1464,-9.235,-8.4389,3.6875
11.54,-0.1357,-0.7486,10.2,-6.4275,-12.7397,1.7786
11.56,-0.1941,-0.5469,10.2027,-9.9579,-4.4628,1.5215
11.58,-0.0829,-0.5694,10.1328,-7.0376,-8.8079,4.6542
11.6,-0.1647,-0.6822,10.1173,-3.681,-9.173,4.7629
11.62,0.0214,-0.5501,10.1344,-2.8283,-6.1677,4.0955
11.64,0.0478,-0.4951,9.9277,-1.3866,-8.8183,3.3079
11.66,-0.0277,-0.4133,9.909,4.2617,-7.2054,5.0008
11.68,0.106,-0.5808,9.7332,2.3653,-9.1248,5.7062
11.7,0.0418,-0.3684,9.8895,5.9924,-3.6269,4.1958
11.72,0.0332,-0.49,10.1261,2.76,-12.0438,4.1105
11.74,0.0091,-0.5934,10.0958,1.873,-9.3952,2.2945
11.76,0.1113,-0.4923,10.1551,6.2215,-8.4859,0.8991
11.78,0.1079,-0.2952,10.2882,13.2118,-7.4616,2.2181
11.8,0.054,-0.3904,10.3772,13.283,-7.2422,3.1145
11.82,0.1464,-0.5923,10.4171,10.6723,-8.1215,1.6226
11.84,0.0883,-0.2176,10.2531,13.3632,-9.5337,2.1644
11.86,0.259,-0.4424,10.2843,9.7526,-7.7366,0.6956
11.88,0.3639,-0.3815,10.3425,8.668,-6.8749,1.1758
11.9,0.2428,-0.4141,10.3969,10.9015,-8.3581,1.4006
11.92,0.1407,-0.3855,10.352,11.2093,-6.716,-2.5292
11.94,0.2766,-0.3032,10.3016,10.1947,-6.1297,-0.6616
11.96,0.1585,-0.4547,10.2408,10.1963,-8.2628,-2.6392
11.98,0.0116,-0.3542,10.228,10.8342,-7.8041,-4.5865
12.0,0.0315,-0.3716,10.128,2.5122,-5.5627,-2.4137
12.02,0.0728,-0.3864,10.1268,2.4088,-7.3372,-4.6938
12.04,0.1343,-0.391,10.0043,5.0251,-3.8811,-1.7283
12.06,-0.0598,-0.5754,9.8682,6.6481,-8.3481,-3.6572
12.08,0.1023,-0.5786,9.8267,-1.7363,-6.9214,-2.2679
12.1,-0.0026,-0.5497,9.9294,-1.0684,-4.8701,-5.0706
12.12,-0.0332,-0.5298,10.0257,-1.8993,-11.5506,-3.0425
12.14,-0.076,-0.4118,10.0255,-7.7861,-7.8398,-1.9356
12.16,-0.0204,-0.8071,10.0229,-4.9584,-9.8992,-0.9616
12.18,-0.1648,-0.6591,10.2217,-12.6548,-7.692,-2.6832
12.2,-0.0779,-0.7823,10.2341,-12.2369,-9.5897,0.485
12.22,-0.229,-0.7505,10.1984,-13.3585,-9.5015,-1.6236
12.24,-0.2978,-0.6937,10.3475,-14.1431,-8.1184,-1.732
12.26,-0.1817,-0.7529,10.3242,-14.5469,-8.4358,1.1221
12.28,-0.3304,-0.6175,10.3738,-15.6509,-10.5278,-2.2305
12.3,-0.1302,-0.7601,10.2317,-11.8007,-9.7111,1.071
12.32,-0.2538,-0.5615,10.33,-15.3821,-7.4916,0.6205
12.34,-0.167,-0.6917,10.4363,-11.4962,-6.7123,0.6122
12.36,-0.2126,-0.8074,10.2634,-8.6798,-11.7212,2.0476
12.38,-0.1942,-0.6601,10.3114,-9.7539,-8.2057,1.8422
12.4,-0.1131,-0.5852,10.0978,-11.1234,-5.9201,2.9056
12.42,-0.111,-0.5832,10.1785,-10.7084,-8.5381,2.3171
12.44,-0.096,-0.7361,10.0163,-6.6053,-8.2429,5.8658
12.46,0.0501,-0.5565,10.0224,-2.9067,-7.9472,5.0443
12.48,-0.0144,-0.5043,9.8803,-6.1859,-8.9474,2.1076
12.5,0.0042,-0.5396,9.8243,-5.6755,-4.3349,0.1299
12.52,0.1538,-0.5889,9.9464,5.5209,-5.8844,3.4344
12.54,0.1357,-0.4623,10.0249,-0.0881,-10.0122,3.3009
12.56,0.109,-0.4721,10.1105,6.6971,-4.8424,4.212
12.58,0.1813,-0.3389,10.1529,7.9782,-5.9934,4.5803
12.6,0.1265,-0.4506,10.1382,12.4999,-7.9365,3.4832
12.62,0.2697,-0.4947,10.2705,8.172,-8.4851,-0.295
12.64,0.1986,-0.3977,10.2826,13.7463,-9.3641,-0.0398
12.66,0.2404,-0.3174,10.3464,11.8928,-5.3998,0.0187
12.68,0.1929,-0.4532,10.4115,11.7831,-10.4051,3.4015
12.7,0.1489,-0.4727,10.461,10.4606,-10.0351,-1.0371
12.72,0.1108,-0.3881,10.3608,9.3916,-9.2267,0.4608
12.74,0.1451,-0.3723,10.3374,15.2289,-9.7069,-2.2839
12.76,0.0134,-0.5099,10.267,11.0284,-9.0598,-0.9768
12.78,0.1846,-0.4856,10.3472,7.6613,-7.0396,-1.0638
12.8,0.1825,-0.4282,10.1955,8.7249,-8.0732,-3.0831
12.82,0.182,-0.378,10.2432,10.6028,-10.1327,-2.8016
12.84,0.1038,-0.4956,10.1176,6.0763,-7.4566,-3.6538
12.86,0.038,-0.4918,10.1061,2.6867,-7.9774,-4.0444
12.88,0.1197,-0.5327,10.0084,2.5528,-8.9117,-5.9102
12.9,0.14,-0.4745,9.8051,6.1176,-5.4704,-4.8137
12.92,-0.0772,-0.4248,9.8127,-0.1124,-7.9001,-3.3679
12.94,-0.0177,-0.6051,9.9325,-2.0419,-9.9596,-4.8881
12.96,-0.1087,-0.63,9.9668,-1.5859,-8.5764,-5.4604
12.98,-0.1294,-0.5836,10.0658,-8.4699,-12.4599,-4.7955
13.0,-0.0618,-0.7536,10.0909,-0.7647,-7.7521,-4.317
13.02,-0.2278,-0.7292,10.1889,-4.8048,-6.2334,-2.5009
13.04,-0.0507,-0.5783,10.2988,-12.2685,-4.8369,-3.8233
13.06,-0.1693,-0.7885,10.288,-13.0457,-8.88,-2.9846
13.08,-0.1424,-0.7061,10.359,-13.9257,-4.0836,1.1135
13.1,-0.2144,-0.7183,10.3475,-11.5306,-8.9942,-4.2106
13.12,-0.2839,-0.5736,10.4084,-11.9222,-6.7054,1.7761
13.14,-0.1666,-0.5381,10.4054,-9.1983,-8.7143,0.6501
13.16,-0.2987,-0.5792,10.3144,-12.4936,-4.6857,1.2978
13.18,-0.2468,-0.5863,10.2674,-10.0193,-8.8073,2.113
13.2,-0.1898,-0.6337,10.3011,-8.3973,-7.7178,0.4469
13.22,-0.2131,-0.5616,10.2006,-8.8582,-10.3626,2.8919
13.24,-0.0562,-0.7297,10.0084,-9.2205,-12.0473,3.9044
13.26,-0.1458,-0.609,10.1056,-7.0648,-9.6124,2.223
13.28,-0.132,-0.6597,10.0013,-4.665,-8.3071,3.2156
13.3,-0.1685,-0.6356,9.8273,-3.4873,-7.9958,6.3014
13.32,-0.0642,-0.5891,9.897,-5.9427,-13.44,4.9726
13.34,-0.0185,-0.4509,9.8149,1.3298,-6.8872,3.5326
13.36,-0.0619,-0.528,10.0146,-1.5564,-9.4171,5.45
13.38,0.0858,-0.6142,10.0405,4.4748,-4.7795,2.431
13.4,0.0802,-0.4722,10.0556,2.3633,-9.4303,5.1947
13.42,0.081,-0.4393,10.1248,7.9338,-11.4329,2.8265
13.44,0.2206,-0.3793,10.1253,7.441,-4.7409,0.5186
13.46,0.2271,-0.5098,10.3132,9.4238,-6.753,1.598
13.48,0.0491,-0.2836,10.3635,14.4585,-5.0795,-1.198
13.5,0.2267,-0.4241,10.4309,14.8175,-8.1226,0.0051
13.52,0.3185,-0.5189,10.2945,11.1492,-8.4367,-0.1322
13.54,0.2006,-0.3431,10.3806,13.0762,-6.4407,0.1552
13.56,0.1161,-0.5138,10.4158,11.605,-8.5842,-1.0112
13.58,0.2345,-0.4166,10.3831,12.6381,-9.2555,-3.9898
13.6,0.1914,-0.5594,10.3429,16.5394,-5.125,-3.0579
13.62,0.1736,-0.3671,10.3052,10.0044,-9.8929,-6.0991
13.64,0.2753,-0.5513,10.1703,5.5006,-5.0663,-1.2633
13.66,0.0822,-0.4208,10.1106,6.7153,-7.9327,-4.6599
13.68,-0.0131,-0.5038,9.9926,5.5966,-6.998,-0.8866
13.7,0.1678,-0.3754,9.9909,2.5201,-7.4116,-3.4882
13.72,0.0965,-0.4288,10.0017,4.2668,-9.3452,-1.1568
13.74,0.0014,-0.5762,9.7513,0.5947,-5.8694,-6.4042
13.76,0.0596,-0.6115,9.866,-0.1886,-7.5621,-4.8067
13.78,-0.1891,-0.7387,9.9893,-1.8763,-10.7583,-3.7679
13.8,-0.1493,-0.7043,10.0985,-4.4887,-7.1159,-1.2074
13.82,-0.0916,-0.6682,10.1675,-5.4675,-10.1137,-1.9037
13.84,-0.0811,-0.643,10.1907,-6.4174,-7.0244,-5.6064
13.86,-0.1626,-0.6855,10.2322,-8.6853,-7.5048,-5.7398
13.88,-0.096,-0.6456,10.1375,-8.8013,-7.2016,-2.006
13.9,-0.2061,-0.5756,10.3881,-11.3364,-4.8598,-1.2233
13.92,-0.2025,-0.7044,10.3883,-15.4959,-8.9312,-1.9925
13.94,-0.1487,-0.5107,10.2393,-11.7295,-2.8465,-2.58
13.96,-0.3151,-0.8187,10.3584,-13.8231,-7.649,1.1971
13.98,-0.1545,-0.7199,10.4957,-9.5637,-6.5292,0.5521
14.0,-0.2151,-0.7454,10.381,-11.846,-10.7052,1.5169
14.02,-0.1785,-0.7023,10.3528,-12.5901,-8.2307,3.217
14.04,-0.1736,-0.5627,10.2695,-6.6908,-12.1382,2.1586
14.06,-0.1567,-0.6413,10.0871,-10.0355,-5.7813,1.263
14.08,-0.1979,-0.5875,10.137,-8.3044,-4.0803,5.0209
14.1,-0.0343,-0.6188,10.2343,-6.7574,-7.7665,4.1845
14.12,-0.0321,-0.6264,9.918,-1.0394,-6.9111,2.0063
14.14,-0.0005,-0.6428,9.8134,-1.2895,-11.0756,3.695
14.16,-0.0569,-0.5262,9.772,-3.1417,-8.5298,4.4887
14.18,-0.0708,-0.507,9.8951,3.7486,-5.2131,4.0515
14.2,0.1273,-0.5241,9.9242,5.5886,-11.0324,1.963
14.22,0.064,-0.463,10.0261,5.1034,-11.3409,1.5389
14.24,0.1631,-0.514,10.0777,3.8845,-5.0811,5.6651
14.26,0.1363,-0.3437,10.1034,7.9841,-8.4668,7.8392
14.28,0.1069,-0.441,10.2993,5.8224,-8.3579,2.8911
14.3,0.215,-0.462,10.2425,13.4578,-8.9208,1.5338
14.32,0.1021,-0.3904,10.4009,9.1406,-8.1848,-0.6577
14.34,0.0877,-0.4447,10.3451,9.4726,-9.0914,-0.052
14.36,0.151,-0.2523,10.2825,16.3752,-8.4601,-0.3244
14.38,0.1804,-0.5669,10.3667,15.0591,-6.0908,-0.744
14.4,0.204,-0.4347,10.2977,10.282,-9.6907,-0.4651
14.42,0.1697,-0.5083,10.256,11.6501,-8.3292,-1.8206
14.44,0.1537,-0.4754,10.306,13.9102,-4.5531,-2.0876
14.46,0.2518,-0.3976,10.3333,11.3678,-7.5119,-2.0089
14.48,0.1974,-0.4506,10.1504,5.1592,-6.3823,-4.8593
14.5,0.1456,-0.4662,10.1202,8.2855,-8.1895,-1.0588
14.52,0.0915,-0.4862,10.0729,5.7427,-9.5619,-1.8041
14.54,0.1036,-0.5845,10.0044,3.158,-5.7974,-2.2467
14.56,-0.0088,-0.4822,9.987,1.7557,-7.199,-4.7474
14.58,-0.1095,-0.4475,9.839,-0.025,-8.2778,-5.1588
14.6,-0.1443,-0.5816,9.8964,-5.1237,-11.5329,-4.9329
14.62,0.0919,-0.6206,9.9402,-0.8244,-12.7914,-2.8337
14.64,-0.0792,-0.6005,10.0026,-2.6554,-6.2473,-2.7358
14.66,-0.0801,-0.5309,10.1371,-9.1861,-9.3041,-3.8398
14.68,-0.2684,-0.653,10.2188,-6.7365,-7.4732,-5.3096
14.7,-0.1559,-0.494,10.0642,-10.6219,-4.8935,-0.3791
14.72,-0.0979,-0.7302,10.2153,-12.023,-8.2538,-3.0858
14.74,-0.2737,-0.7129,10.326,-10.8541,-6.3875,-3.2812
14.76,-0.1279,-0.6574,10.4017,-9.1623,-5.6088,-1.367
14.78,-0.1866,-0.5623,10.4488,-9.2058,-7.9813,-0.3511
14.8,-0.1188,-0.738,10.324,-11.2445,-5.8184,-2.5343
14.82,-0.211,-0.8157,10.3309,-10.0723,-6.5241,-1.4483
14.84,-0.1826,-0.7365,10.3955,-9.3702,-6.4784,-0.1072
14.86,-0.1084,-0.7906,10.2194,-11.6916,-10.3204,0.9712
14.88,-0.1133,-0.7012,10.2436,-6.2552,-9.1383,6.485
14.9,-0.1469,-0.6634,10.1914,-6.4986,-3.7064,5.6791
14.92,-0.1283,-0.504,10.1438,-9.7311,-9.303,4.5866
14.94,0.0808,-0.4773,9.9661,-6.4786,-6.2219,4.6585
14.96,-0.0028,-0.7577,9.9996,-6.5198,-10.6123,1.3777
