time_s,Ax,Ay,Az,Gx,Gy,Gz
0.0,0.0956,0.3947,9.8389,1.4868,2.7357,-0.0865
0.02,-0.0125,0.2917,9.9001,-1.7768,5.6232,0.6689
0.04,0.081,0.3205,10.0098,1.2243,4.619,-0.1741
0.06,0.1689,0.2717,10.054,1.9932,3.9484,4.6879
0.08,0.1847,0.1999,10.047,2.959,3.2297,2.7922
0.1,0.2505,0.1268,10.2396,6.8071,0.1684,3.7854
0.12,0.4531,0.3696,10.3054,7.1767,2.5282,3.5916
0.14,0.3795,0.0928,10.2042,9.7255,-2.1516,4.3742
0.16,0.4032,0.0726,10.2166,7.1712,-1.3896,3.0931
0.18,0.5159,0.1087,10.1378,9.0554,-1.9442,2.1601
0.2,0.247,0.0165,10.1332,6.8475,-4.007,2.9328
0.22,0.1374,0.0279,10.0985,6.8041,-2.823,0.656
0.24,0.2084,0.0768,10.0189,7.0182,-2.9917,0.4972
0.26,0.1843,0.0027,9.9742,6.2167,-5.3865,-1.7541
0.28,-0.1176,-0.0444,9.8846,3.018,-5.6059,-0.5381
0.3,0.0029,0.0549,9.9017,2.9989,-3.9573,-1.4488
0.32,-0.0536,-0.0787,9.9715,6.0111,-5.3443,-4.003
0.34,-0.1768,-0.0644,10.0824,0.39,-4.8714,-2.1311
0.36,-0.2002,0.0266,10.0767,2.2484,-4.3742,-1.0285
0.38,-0.2536,0.0057,10.0983,0.6985,-0.4493,-2.7455
0.4,-0.2704,-0.1993,10.1403,-2.6283,-3.9945,-1.5848
0.42,-0.3641,-0.1244,10.1922,-6.043,0.431,-2.3538
0.44,-0.3577,-0.1651,10.2247,-2.8444,-0.8273,-1.3777
0.46,-0.4669,-0.171,10.172,-7.5737,2.5691,-0.1359
0.48,-0.3782,-0.3232,10.2053,-7.2747,0.3951,1.0561
0.5,-0.2161,-0.2713,10.1634,-8.7776,3.611,-0.0852
0.52,-0.208,-0.1941,10.0769,-8.3804,1.0416,0.634
0.54,-0.2027,-0.3441,9.9824,-12.6137,5.2481,2.5748
0.56,-0.0592,-0.1983,9.8565,-6.3813,3.5924,3.161
0.58,-0.0445,-0.2874,9.7892,-10.7616,4.4597,2.7478
0.6,0.0495,-0.1937,9.8803,-8.7354,5.1468,3.3778
0.62,0.1323,-0.2856,9.9493,-9.8091,6.5585,4.4858
0.64,0.2426,-0.3267,9.9775,-5.8908,4.8757,4.7156
0.66,0.3015,-0.2196,10.0881,-3.4426,2.1153,2.4014
0.68,0.3278,-0.1974,10.1685,-4.3227,3.277,2.3531
0.7,0.4484,-0.3883,10.2744,0.4019,1.5878,1.6374
0.72,0.4108,-0.1932,10.191,1.1349,1.2701,1.1227
0.74,0.4083,-0.153,10.237,0.2413,-1.1358,-2.025
0.76,0.262,-0.0928,10.1229,6.2973,-2.1408,-0.5787
0.78,0.3669,-0.1219,10.1915,2.0716,-2.6909,-1.3728
0.8,0.2292,-0.1968,10.1616,4.4843,-1.5105,-1.6835
0.82,0.2255,-0.1075,10.0105,6.8922,-4.4957,-3.4962
0.84,0.2827,-0.033,9.9942,6.1499,-6.2326,-3.7692
0.86,-0.003,-0.0996,9.8833,7.719,-3.8639,-1.4246
0.88,-0.0705,0.0308,9.7559,7.9081,-4.4908,-1.7678
0.9,-0.0498,0.034,9.9404,5.3716,-4.8116,-1.7758
0.92,-0.0476,0.0408,9.9441,5.9337,-4.4363,-1.5382
0.94,-0.2912,0.0887,10.1407,1.5192,-5.1,-0.4829
0.96,-0.2281,0.09,10.1094,9.6019,-3.2539,-0.5064
0.98,-0.1628,0.0954,10.1765,7.8142,-5.2735,0.3369
1.0,-0.3508,0.1028,10.2112,3.5756,-1.6169,3.3692
1.02,-0.5083,0.087,10.1844,5.6887,-3.8672,2.0984
1.04,-0.467,0.2763,10.2245,4.9653,2.1251,2.0771
1.06,-0.3707,0.1595,10.1538,-0.9155,2.0597,2.6411
1.08,-0.3445,0.2445,10.1272,1.1444,4.3005,2.3994
1.1,-0.3701,0.3345,10.0596,1.3135,2.8926,4.8859
1.12,-0.1047,0.1895,10.0197,3.955,3.6894,4.1245
1.14,-0.1146,0.2226,9.9691,-3.9618,3.3974,2.7457
1.16,-0.0068,0.2951,9.884,-6.3676,2.4276,1.9041
1.18,-0.0153,0.3714,9.8013,-4.8316,4.561,0.9028
1.2,0.1669,0.2512,9.9673,-7.5265,5.4347,-0.5002
1.22,0.1136,0.3302,10.0206,-4.7638,4.9105,-0.1545
1.24,0.2758,0.2442,10.0386,-7.7369,3.7831,-2.0739
1.26,0.2482,0.2401,10.1654,-7.4437,1.2271,-2.7176
1.28,0.5107,0.2434,10.1617,-7.2859,0.9796,-1.1519
1.3,0.4088,0.2162,10.2438,-13.5448,3.1655,-3.1035
1.32,0.364,0.1511,10.3106,-7.2521,-0.4396,-2.9532
1.34,0.2599,0.1784,10.1779,-5.5498,-2.3857,-2.0936
1.36,0.1602,0.2234,10.1961,-7.4084,-1.8232,-4.2886
1.38,0.3628,0.1633,10.1246,-8.8282,-3.8251,-3.9923
1.4,0.2725,0.1167,10.0017,-5.1855,-2.893,-4.2484
1.42,0.1436,0.0897,9.9426,-5.5694,-5.4917,-1.6815
1.44,0.1322,0.1167,9.9443,-0.6655,-1.5312,-0.6209
1.46,0.0381,-0.106,9.9392,-0.1186,-5.0954,1.8102
1.48,-0.0366,-0.0426,9.8168,1.775,-3.2309,1.5347
1.5,-0.0724,0.0784,9.9555,0.9591,-6.8505,1.2149
1.52,-0.1833,-0.0083,10.1135,4.1512,-5.8189,2.1682
1.54,-0.1821,-0.1214,10.1146,3.977,-4.6313,1.999
1.56,-0.272,-0.1079,10.2012,4.185,-2.6201,1.4433
1.58,-0.3271,-0.1686,10.2114,7.9245,-2.8709,3.0957
1.6,-0.31,-0.0448,10.3022,5.763,-2.2111,2.4709
1.62,-0.5498,-0.1741,10.2322,6.2964,0.4072,1.2876
1.64,-0.3714,-0.2715,10.2497,7.6862,1.8725,0.6337
1.66,-0.3014,-0.18,10.1383,9.2542,2.214,3.0034
1.68,-0.2833,-0.2728,10.1103,10.6221,3.3615,1.1184
1.7,-0.2385,-0.2773,9.9068,11.6374,5.3819,1.1859
1.72,-0.2849,-0.1955,9.9921,8.6543,4.7218,0.8772
1.74,-0.1465,-0.2576,9.8926,3.8525,3.4459,-1.5547
1.76,0.1253,-0.2747,9.8173,8.8443,2.131,-1.7873
1.78,0.1128,-0.362,9.8094,1.5746,3.0869,-2.5286
1.8,0.2388,-0.2817,10.0165,1.5749,5.1876,-1.9987
1.82,0.2068,-0.2867,10.055,0.3224,4.4066,-3.9249
1.84,0.3041,-0.2331,10.1781,-0.7042,4.0528,-4.4388
1.86,0.2835,-0.1826,10.1663,-3.4146,2.1858,-3.1847
1.88,0.3347,-0.1244,10.2092,-2.3957,0.4664,-3.1202
1.9,0.3455,-0.1386,10.2279,-4.5569,0.7373,-2.0635
1.92,0.4379,-0.0476,10.2449,-7.1548,0.0185,0.1422
1.94,0.3679,-0.1707,10.198,-8.3019,-4.1235,0.413
1.96,0.1426,-0.1087,10.1358,-6.6991,-1.2812,-0.187
1.98,0.3531,-0.0786,10.0274,-5.3607,-4.1386,0.6129
2.0,0.2872,-0.1181,10.054,-8.7309,-5.5102,-1.3251
2.02,0.0546,-0.065,9.9961,-8.6326,-3.2135,2.6958
2.04,0.108,-0.1011,9.8414,-5.8616,-7.0264,3.5587
2.06,0.0317,-0.0633,9.7942,-8.7849,-3.2519,2.5962
2.08,-0.2136,-0.0087,9.9009,-7.4824,-4.0291,1.5122
2.1,-0.0678,0.0668,9.9494,-5.3351,-4.4549,2.0106
2.12,-0.25,0.0505,10.1001,-4.8521,-2.9411,2.0722
2.14,-0.212,0.138,10.122,-3.9347,-1.8376,2.3072
2.16,-0.422,0.1157,10.2457,-0.398,-2.3174,1.3607
2.18,-0.3023,0.0794,10.1529,0.6345,-1.2578,1.2224
2.2,-0.3468,0.1571,10.1836,-0.6752,-0.0318,0.2703
2.22,-0.3019,0.1579,10.2144,-1.0362,1.8267,-0.6064
2.24,-0.4177,0.234,10.2774,0.8482,4.1145,-1.3633
2.26,-0.3549,0.2968,10.1837,5.2059,4.0241,-2.832
2.28,-0.1611,0.2206,10.0271,5.272,3.0319,-3.9766
2.3,-0.2166,0.1701,9.9539,6.721,6.1282,-2.7482
2.32,-0.01,0.1921,9.8586,5.6279,3.699,-3.661
2.34,0.0482,0.2076,9.7985,11.1884,4.8155,-0.4472
2.36,-0.0494,0.2457,9.9694,10.7825,5.9064,-0.616
2.38,0.0536,0.3129,10.0108,8.0527,4.0079,-0.72
2.4,0.0989,0.2215,10.0444,8.1334,5.0523,-1.2643
2.42,0.3895,0.2043,10.0866,6.3445,3.3747,-1.604
2.44,0.2043,0.3332,10.1705,6.3036,4.1651,-0.3709
2.46,0.4021,0.2502,10.1685,5.4616,-0.1076,1.0562
2.48,0.2797,0.2225,10.2437,4.7012,-0.2591,1.3772
2.5,0.4267,0.2731,10.2368,1.7702,0.5692,0.4756
2.52,0.3614,0.2285,10.2001,2.138,-4.3273,2.4057
2.54,0.3731,0.0622,10.0846,-1.0637,-2.0834,2.6439
2.56,0.2348,0.0274,10.1371,3.0635,-2.7143,1.8486
2.58,0.0847,0.0567,9.97,0.8554,-5.6806,2.3861
2.6,0.1432,0.0266,9.867,-1.8086,-4.7144,1.9263
2.62,-0.0005,0.111,9.8805,-2.1056,-3.7335,1.3908
2.64,0.0075,0.0482,9.8444,-6.2877,-5.6368,2.8637
2.66,-0.0474,-0.0282,9.8874,-2.7569,-3.3012,1.2352
2.68,-0.2612,0.0155,9.97,-7.2411,-3.4027,1.0232
2.7,-0.1152,-0.0484,10.0449,-7.3875,-1.786,-0.4376
2.72,-0.2047,-0.0505,10.068,-9.7497,-1.248,-0.9206
2.74,-0.3478,-0.1584,10.1664,-5.446,-4.2825,-2.2452
2.76,-0.3629,-0.1267,10.1905,-5.059,-0.5947,-2.5752
2.78,-0.3251,-0.1695,10.1653,-4.3195,-0.7744,-2.6356
2.8,-0.2852,-0.2517,10.1885,-7.0934,0.5824,-2.6906
2.82,-0.2748,-0.2365,10.1556,-5.8247,2.6703,-2.7816
2.84,-0.3253,-0.11,10.2414,-4.9058,1.1497,-3.706
2.86,-0.2783,-0.2009,10.0446,-5.3176,4.8648,-2.3062
2.88,-0.1563,-0.2033,10.0695,-3.3087,5.337,-2.0787
2.9,-0.095,-0.2803,9.916,-2.9663,4.9777,-1.4751
2.92,-0.0037,-0.3281,9.8781,-1.8193,3.8911,0.164
2.94,-0.0756,-0.1922,9.9196,1.6318,4.6363,0.0296
2.96,0.165,-0.2372,9.8934,2.0118,3.5851,2.2565
2.98,0.0886,-0.1781,10.0054,2.1751,4.3799,1.7119
3.0,0.3184,-0.2988,10.0401,5.2286,3.0722,2.3947
3.02,0.4438,-0.1747,10.214,5.9322,2.97,0.3642
3.04,0.3673,-0.2433,10.2228,9.2086,2.2313,1.5438
3.06,0.3379,-0.1722,10.229,7.6618,1.5207,4.0022
3.08,0.3834,-0.2053,10.2091,12.3979,0.8433,1.7605
3.1,0.2254,-0.1642,10.217,6.2339,-1.2424,-0.1562
3.12,0.3337,-0.1593,10.1703,6.4402,-0.3366,0.4273
3.14,0.2545,-0.161,10.1472,10.722,-2.9107,1.0182
3.16,0.2227,-0.1948,10.1166,5.6244,-4.7536,0.4054
3.18,0.0995,-0.0196,9.9517,8.2438,-2.0424,0.0464
3.2,0.0911,0.0901,9.8848,6.5079,-5.8186,-0.2073
3.22,-0.0445,-0.0702,9.8652,8.2306,-5.1747,0.5704
3.24,-0.1877,0.0935,9.9294,2.7167,-6.6543,-0.7491
3.26,-0.1253,0.025,9.9854,2.3356,-5.4417,-3.9124
3.28,-0.3014,0.0603,10.0558,0.9401,-3.6266,-2.6308
3.3,-0.4134,0.178,10.0837,-2.6899,-1.4431,-4.1347
3.32,-0.2217,0.0437,10.1345,1.501,-0.9354,-4.4099
3.34,-0.3558,0.019,10.2518,-2.6445,-5.0556,-3.2356
3.36,-0.3983,0.0696,10.2358,-3.5401,-0.5659,-2.6009
3.38,-0.3042,0.3311,10.2171,-2.3586,1.4253,-0.2301
3.4,-0.4031,0.2489,10.1971,-3.5275,0.7355,-2.0264
3.42,-0.4335,0.2652,10.1594,-7.4427,3.1462,2.9019
3.44,-0.2658,0.2522,10.1599,-12.7597,3.3248,0.0782
3.46,-0.2126,0.2298,10.0673,-4.9814,6.8182,1.6239
3.48,-0.2107,0.2767,9.9806,-10.2027,6.4278,0.0366
3.5,-0.0498,0.1682,9.9737,-7.4735,7.8284,2.2943
3.52,0.0756,0.3042,9.8258,-11.4886,6.5771,2.0992
3.54,0.1101,0.3533,9.932,-8.2472,7.8663,3.3315
3.56,0.2441,0.2593,10.0788,-4.4357,4.7846,1.2126
3.58,0.1377,0.1976,10.0589,-8.7769,1.6344,2.4551
3.6,0.2651,0.1963,10.0823,-2.8224,2.1075,2.6897
3.62,0.493,0.192,10.201,1.6989,3.1997,0.3041
3.64,0.5259,0.2797,10.2717,-2.858,3.5248,0.5235
3.66,0.5133,0.2551,10.1577,-1.7809,-1.498,1.2857
3.68,0.3293,0.2437,10.1927,3.6914,-0.6648,-0.2842
3.7,0.3129,0.1683,10.203,6.5455,-1.4653,-3.3224
3.72,0.2592,0.1961,10.1845,-0.9403,-3.2108,-2.6825
3.74,0.2273,0.0769,10.0258,6.3641,-0.7243,-1.8562
3.76,0.1432,0.089,10.0237,7.5641,-3.7919,-4.6298
3.78,0.1628,-0.019,9.9348,4.6705,-4.4167,-2.5191
3.8,-0.0646,0.0027,9.8557,10.1011,-5.1704,-3.5479
3.82,-0.0318,0.0731,9.8532,10.6031,-6.2128,-1.1755
3.84,-0.0888,-0.0904,9.9205,10.8837,-5.665,-3.7349
3.86,-0.1582,-0.0785,10.0788,6.8039,-4.4182,-2.3883
3.88,-0.1939,-0.0088,10.0844,11.733,-3.2741,-1.5963
3.9,-0.3091,-0.038,10.1566,5.2269,-3.5629,0.7513
3.92,-0.1486,-0.0659,10.1779,9.0912,-2.3374,0.9719
3.94,-0.353,-0.321,10.2157,5.0792,-1.5924,0.3349
3.96,-0.394,-0.1751,10.2509,-0.5664,-1.9222,3.9279
3.98,-0.172,-0.2964,10.1476,3.511,3.8689,2.9056
4.0,-0.3648,-0.0591,10.2155,1.6378,4.1097,1.4188
4.02,-0.272,-0.2217,10.1103,-1.6324,4.5738,2.8445
4.04,-0.1569,-0.1715,10.0289,-0.9008,5.2199,2.7803
4.06,-0.3348,-0.3211,9.9297,-2.3593,4.1183,3.5081
4.08,-0.1556,-0.2368,9.8689,-4.6048,6.6754,2.911
4.1,-0.0139,-0.3219,9.8503,-3.5116,8.5562,2.1265
4.12,0.1922,-0.1844,9.9214,-7.2883,4.7027,2.4442
4.14,0.1942,-0.239,9.9579,-5.284,5.8852,-0.6841
4.16,0.2546,-0.211,10.0758,-9.7501,1.3399,-1.0303
4.18,0.2337,-0.3372,10.0478,-6.0607,2.4938,-0.0269
4.2,0.3855,-0.2253,10.1296,-11.6143,4.7504,-0.8805
4.22,0.3751,-0.1601,10.1523,-9.1312,0.1424,-2.5631
4.24,0.3029,-0.045,10.2582,-10.5704,0.5407,-2.8906
4.26,0.4448,-0.357,10.2289,-11.2357,-0.0928,-1.565
4.28,0.4019,-0.1587,10.2153,-5.3971,-1.4059,-3.9726
4.3,0.1146,-0.0868,10.1718,-3.6197,-2.403,-3.2372
4.32,0.3446,-0.266,10.0763,-8.4266,-3.1884,-3.2001
4.34,0.226,-0.051,10.1312,-7.8974,-5.8142,-2.1219
4.36,0.1444,0.081,9.9817,-7.1283,-5.3884,-0.1614
4.38,0.0876,-0.1324,9.9337,-1.6049,-6.0252,-0.6105
4.4,0.1036,0.0457,9.8557,3.3082,-6.1568,-0.0374
4.42,-0.1046,-0.0478,9.9447,0.7961,-3.0013,2.8561
4.44,-0.036,0.0418,10.0785,1.9506,-3.2976,1.4151
4.46,-0.2982,0.0856,10.0122,3.6897,-2.5746,3.2224
4.48,-0.3145,0.1327,10.19,5.843,-4.2571,3.1097
4.5,-0.2539,0.1471,10.1267,7.4139,-1.1257,3.1594
4.52,-0.3776,0.1253,10.1775,6.0018,-3.4048,2.5929
4.54,-0.4126,0.1753,10.2164,7.2478,1.3396,2.4968
4.56,-0.4143,0.1693,10.2116,6.1048,0.8073,2.4803
4.58,-0.2251,0.1985,10.2031,10.3298,1.847,2.3746
4.6,-0.3805,0.2465,10.1249,9.0558,5.1472,1.1932
4.62,-0.3393,0.2565,10.0582,9.1919,2.2512,0.2827
4.64,-0.1291,0.2255,9.9485,4.3992,3.2734,-0.9083
4.66,-0.0715,0.2071,9.9236,6.143,4.691,-0.5123
4.68,-0.142,0.2555,9.8251,2.9742,2.8333,-1.9084
4.7,0.099,0.2829,9.8973,2.4919,5.4894,-2.3985
4.72,0.1172,0.3585,9.9703,2.3148,2.1618,-2.3237
4.74,0.2614,0.3443,10.0182,0.4326,3.7963,-2.9204
4.76,0.2173,0.1664,10.2108,-1.5168,7.4258,-1.3035
4.78,0.3448,0.253,10.2431,-1.6364,1.8413,-2.6788
4.8,0.3606,0.2541,10.1974,-3.0186,2.3129,-3.8983
4.82,0.3079,0.1779,10.1672,-5.3239,-0.0409,-3.0263
4.84,0.3665,0.0638,10.1695,-7.5677,-0.0321,-1.4606
4.86,0.2981,0.1759,10.2595,-1.0282,1.9609,-0.1702
4.88,0.3584,0.1192,10.1064,-8.5971,-1.6276,-2.3171
4.9,0.349,0.155,10.1324,-6.0847,-0.82,2.2605
4.92,0.4328,-0.0048,10.0385,-11.744,-5.0071,1.5908
4.94,0.0918,0.0023,9.9981,-6.7579,-2.4414,2.6328
4.96,0.1533,0.0096,9.8689,-10.9693,-5.4682,2.1876
4.98,-0.0852,0.0224,9.8407,-7.8211,-4.2626,2.2762
5.0,0.065,-0.1676,9.8323,-6.3092,-4.2852,3.5796
5.02,-0.1668,0.0527,9.8738,-6.4817,-3.4665,3.1364
5.04,-0.318,-0.1553,10.0347,-4.2863,-3.6526,2.9823
5.06,-0.2745,-0.0652,10.1024,-6.6002,-3.9092,2.5852
5.08,-0.3581,-0.0939,10.164,-5.8951,-1.5436,2.6568
5.1,-0.3669,-0.1429,10.1898,3.401,-2.4947,0.5218
5.12,-0.3996,-0.1143,10.247,1.8523,0.7591,-0.8171
5.14,-0.403,-0.1223,10.2023,-3.6628,0.0275,0.4361
5.16,-0.2287,-0.1858,10.1464,2.1732,1.7757,-2.17
5.18,-0.2183,-0.2318,10.1688,4.6589,2.4909,-2.3897
5.2,-0.3201,-0.1426,9.9916,5.3782,6.5626,-0.8818
5.22,-0.333,-0.2522,10.0435,2.9477,4.9961,-1.5184
5.24,-0.0258,-0.2267,9.9533,6.2861,2.7345,-3.1272
5.26,-0.194,-0.1901,9.8883,6.8255,6.3476,-2.8225
5.28,0.0009,-0.2496,9.7955,11.4487,3.3684,-4.1829
5.3,0.0565,-0.1204,9.953,5.6576,4.945,-3.8469
5.32,0.2606,-0.1188,9.9681,12.0991,3.41,-1.5101
5.34,0.2667,-0.229,10.1088,4.6622,3.5364,-0.4706
5.36,0.1702,-0.2717,9.9849,8.7664,5.1612,-0.1077
5.38,0.4314,-0.2954,10.2023,3.6672,0.5684,-1.8
5.4,0.3522,-0.0983,10.2434,6.1945,3.7647,1.1675
5.42,0.343,-0.1577,10.1776,5.4546,-2.1419,1.6103
5.44,0.2409,-0.2006,10.2539,2.2856,0.0543,1.6548
5.46,0.3386,-0.0934,10.1646,2.7632,-1.3331,1.4806
5.48,0.2812,-0.1925,10.173,3.5328,-3.6513,2.4442
5.5,0.1771,0.0293,10.0402,1.4421,-1.7319,1.7588
5.52,0.0496,-0.1259,10.0205,-1.1877,-3.9828,2.6038
5.54,0.0816,-0.0052,9.918,-1.8215,-4.9269,3.3813
5.56,0.1225,0.0002,9.8636,-5.0497,-4.1907,2.2
5.58,-0.0162,0.0787,9.8965,-5.4163,-3.7621,1.2789
5.6,-0.1604,0.029,9.8977,-8.107,-4.6431,0.4947
5.62,-0.0574,0.1436,10.0477,-11.0049,-3.5747,0.5534
5.64,-0.2789,0.1493,10.0702,-8.6228,-3.5324,0.4495
5.66,-0.2784,0.0702,10.1157,-8.8103,-1.1881,-0.5459
5.68,-0.2836,0.1631,10.2168,-9.1352,-2.4209,-2.7172
5.7,-0.2749,0.1042,10.1879,-10.5878,0.4175,-2.5065
5.72,-0.394,0.1764,10.2337,-7.7055,-0.267,-2.659
5.74,-0.4236,0.1958,10.2119,-6.0178,3.5847,-4.5157
5.76,-0.4022,0.2078,10.2178,-5.0092,-0.2527,-3.4317
5.78,-0.2659,0.1624,10.1662,-5.7447,2.5239,-4.3173
5.8,-0.1997,0.2701,9.952,-2.6016,4.4246,-2.8901
5.82,-0.1598,0.2397,9.9287,-1.4688,4.8033,-1.4507
5.84,-0.1409,0.2217,9.8597,-2.9776,3.3822,-0.7969
5.86,0.0326,0.2469,9.7903,-1.7233,3.2343,1.0492
5.88,-0.0508,0.2329,9.9799,2.1237,4.5349,0.0164
5.9,0.0069,0.3187,9.9531,3.3349,1.2348,3.1923
5.92,0.2161,0.3123,10.0359,3.3416,3.6126,1.9121
5.94,0.2154,0.2889,10.1102,5.8845,3.2412,2.4022
5.96,0.2496,0.2849,10.0875,6.9699,1.9083,2.7886
5.98,0.4117,0.205,10.2357,6.8097,2.4047,2.3222
6.0,0.2493,0.2104,10.1556,8.8798,-0.5838,2.7347
6.02,0.3024,0.1734,10.2652,7.3895,1.2709,3.1829
6.04,0.2607,0.1235,10.2281,12.4026,-3.0754,2.1926
6.06,0.3222,0.1706,10.1453,8.9383,-4.317,2.5716
6.08,0.244,0.1362,10.0921,7.6239,-3.3258,2.1412
6.1,0.1152,0.1111,10.0463,4.9301,-3.5395,0.0693
6.12,0.1157,0.034,9.9617,6.8525,-5.347,-0.4017
6.14,0.0194,-0.0318,9.9471,4.2948,-4.401,-1.7182
6.16,-0.0441,-0.0854,9.864,5.5858,-4.172,-0.7617
6.18,-0.2029,0.0543,9.8291,5.9073,-5.2821,-2.2566
6.2,-0.1751,-0.0187,10.0307,2.1321,-6.0021,-3.7638
6.22,-0.2162,-0.134,10.1042,1.1973,-5.8971,-1.8272
6.24,-0.3943,-0.0789,10.1548,-3.4328,-4.9572,-3.0602
6.26,-0.2272,-0.0904,10.1457,-6.9513,-3.2734,-2.7223
6.28,-0.2865,-0.1972,10.2129,-4.6321,-0.0997,-4.0898
6.3,-0.3702,-0.1919,10.1656,-4.8676,1.0953,-2.6999
6.32,-0.4511,-0.094,10.2757,-3.147,3.0995,-0.4134
6.34,-0.3716,-0.0883,10.2361,-7.8625,4.2983,0.0644
6.36,-0.4241,-0.2189,10.1754,-11.2546,2.0465,-0.6196
6.38,-0.3101,-0.1677,10.1438,-8.204,2.0743,0.4495
6.4,-0.1851,-0.2622,10.0236,-12.7187,4.7247,1.7145
6.42,-0.0595,-0.303,9.9687,-8.9576,5.8501,1.1941
6.44,0.0067,-0.1817,9.7411,-9.0319,2.1373,2.7724
6.46,-0.0569,-0.1805,9.9077,-8.8403,5.5459,1.3456
6.48,0.1034,-0.2603,9.9765,-10.6984,2.6435,2.6677
6.5,0.1508,-0.3101,9.8971,-6.6347,5.4472,2.7005
6.52,0.1639,-0.286,10.0767,-4.0339,3.72,1.3191
6.54,0.2715,-0.2646,10.0932,-2.2095,1.9165,1.921
6.56,0.4326,-0.1585,10.1486,-0.3338,0.9112,2.0404
6.58,0.2371,-0.1545,10.4005,-0.859,0.2485,-1.1998
6.6,0.4839,-0.1983,10.202,1.8389,-0.164,0.3417
6.62,0.4165,-0.1365,10.2198,3.2898,-1.3843,0.7707
6.64,0.3674,-0.1878,10.124,7.8666,-0.6507,-3.6785
6.66,0.3202,-0.0956,10.1224,7.2068,-3.0119,-3.2176
6.68,0.2226,-0.1131,10.0999,3.9543,-5.8939,-1.2382
6.7,0.1824,-0.1321,9.9509,7.5656,-4.4462,-3.6473
6.72,0.0316,-0.195,9.9557,11.974,-5.6487,-4.639
6.74,-0.1975,0.0217,9.8576,9.3976,-3.8182,-2.4156
6.76,-0.1497,0.0165,9.894,9.2575,-2.3811,-2.5194
6.78,-0.1509,0.0077,9.9732,11.7651,-2.8135,-1.2068
6.8,-0.2156,-0.064,9.9864,8.1215,-7.4279,-0.8298
6.82,-0.135,0.0957,10.1597,6.4832,-5.578,-0.0326
6.84,-0.23,0.19,10.1318,5.6761,-1.4116,-1.3101
6.86,-0.4798,0.1332,10.2322,3.9435,0.8709,1.2896
6.88,-0.3946,0.195,10.2099,6.4996,0.6856,3.4846
6.9,-0.2461,0.1315,10.2603,2.6444,0.7905,-0.6351
6.92,-0.4048,0.1857,10.2365,3.5813,1.0188,2.8928
6.94,-0.3689,0.2319,10.1661,0.2591,2.101,4.7493
6.96,-0.2598,0.3435,10.1438,3.1119,1.3721,3.7806
6.98,-0.1951,0.1748,10.0136,-3.3501,5.0327,3.6643
7.0,-0.0974,0.2377,9.8603,-4.724,3.3135,1.5753
7.02,-0.2181,0.2313,9.9376,-3.0387,5.4468,1.3081
7.04,0.0358,0.2335,9.7736,-8.0872,4.3406,0.878
7.06,-0.0344,0.2121,9.905,-4.1752,3.7176,0.7117
7.08,0.192,0.2085,9.9861,-3.5253,3.7334,0.538
7.1,0.3312,0.1233,10.164,-8.9453,2.3178,-1.908
7.12,0.2429,0.2166,10.1879,-7.0321,-0.4873,-1.04
7.14,0.3035,0.1772,10.1995,-12.3452,-0.3677,-1.1149
7.16,0.4435,0.2725,10.1571,-8.054,0.5769,-2.3581
7.18,0.4572,0.2692,10.1799,-8.0035,-0.4717,-3.9511
7.2,0.2292,-0.0008,10.2285,-5.5475,-1.9483,-2.2898
7.22,0.3443,0.1044,10.1834,-9.1602,-1.865,-4.032
7.24,0.2379,0.0679,10.11,-5.1818,-0.9783,-3.4515
7.26,0.3099,0.0127,9.9858,-4.5541,-2.5955,-1.8823
7.28,0.3051,0.0761,9.9157,-5.114,-2.1302,-1.5554
7.3,0.1822,-0.0722,9.9444,-1.7069,-6.6402,-1.2027
7.32,0.042,0.0274,9.8438,0.1428,-4.36,0.6448
7.34,-0.0004,-0.0348,9.8475,-2.2793,-2.8725,-0.1439
7.36,-0.131,-0.1087,9.9752,1.5345,-1.1935,0.7592
7.38,-0.1327,-0.0278,10.0498,6.6375,-5.0143,2.7149
7.4,-0.158,-0.0705,10.0698,2.0417,-4.6999,2.3839
7.42,-0.2214,-0.1022,10.1136,8.1811,-2.0478,1.7561
7.44,-0.3037,-0.1421,10.2275,4.3456,-1.0772,3.4038
7.46,-0.3019,-0.1996,10.2171,7.1025,-3.0217,2.0546
7.48,-0.2806,-0.2143,10.1328,8.2918,-0.9607,1.8185
7.5,-0.3214,-0.1766,10.2602,10.7451,1.6376,2.0273
7.52,-0.2833,-0.1943,10.2494,7.5823,2.0423,2.2254
7.54,-0.3216,-0.2323,10.1198,6.3647,3.5907,-0.7754
7.56,-0.3027,-0.3347,10.0483,7.9295,1.0551,0.1694
7.58,-0.0269,-0.2919,9.9459,4.9541,3.8506,-0.09
7.6,-0.0406,-0.1779,9.8753,8.1196,3.4782,0.0511
7.62,0.0561,-0.3762,9.7343,7.1197,3.8185,-2.2966
7.64,0.115,-0.3001,9.8955,4.8758,6.3603,-1.9707
7.66,0.194,-0.2224,9.9781,4.5922,3.9752,-1.0902
7.68,0.2181,-0.2065,9.9222,0.6669,5.0732,-2.9094
7.7,0.2434,-0.3008,10.0182,-1.6318,1.6015,-2.4436
7.72,0.3371,-0.1855,10.1778,-0.4162,1.7454,-4.1491
7.74,0.244,-0.1787,10.2246,-3.1429,1.3225,-3.9394
7.76,0.218,-0.2351,10.1682,-5.4812,0.062,-0.8069
7.78,0.4022,-0.2269,10.0985,-6.4961,-0.7073,0.3209
7.8,0.3582,-0.2448,10.253,-8.2645,-0.4332,-0.9386
7.82,0.2307,-0.085,10.1801,-3.7458,-6.061,-0.8761
7.84,0.2564,-0.0283,10.1097,-11.0458,-2.7509,1.4846
7.86,0.1425,-0.0629,9.9352,-7.9233,-3.3603,2.0985
7.88,0.1956,-0.0206,9.9176,-9.0238,-3.8041,2.6923
7.9,0.1073,0.0901,9.8889,-7.9813,-9.4221,3.6295
7.92,0.0046,0.0787,9.7466,-10.3856,-3.8798,3.3435
7.94,0.1035,0.1481,9.8569,-6.7621,-4.058,2.3434
7.96,-0.1968,-0.0166,9.896,-7.8019,-3.0367,2.7476
7.98,-0.0385,0.1304,10.0377,-6.7146,-5.238,2.2123
8.0,-0.387,0.1515,10.1563,-1.4721,-3.5076,5.1493
8.02,-0.3791,0.1156,10.2136,-4.8389,-0.5562,0.1105
8.04,-0.3108,0.134,10.196,-2.3961,-3.5203,0.7782
8.06,-0.4299,0.0955,10.2154,-2.0382,-2.4827,-0.8815
8.08,-0.3602,0.2723,10.334,3.0672,3.3432,-1.9604
8.1,-0.2692,0.2961,10.1356,3.2731,0.4056,-1.9368
8.12,-0.3738,0.2378,10.0897,2.7606,2.758,-3.0486
8.14,-0.2667,0.1583,10.0308,3.2736,2.4421,-1.7605
8.16,-0.1413,0.2914,10.0163,5.6648,4.9699,-3.6605
8.18,-0.4008,0.1675,9.9892,7.7509,6.4515,-1.7019
8.2,-0.0762,0.2219,9.818,6.825,5.1902,-4.2805
8.22,0.0244,0.2584,9.8564,5.6817,3.4041,-1.7388
8.24,0.2406,0.3343,10.0043,7.0681,4.3239,-0.7884
8.26,0.0537,0.2361,9.9926,10.0943,7.082,-2.7293
8.28,0.2843,0.1527,10.1465,7.7451,3.3573,1.3176
8.3,0.1937,0.2801,10.0343,6.923,4.7246,1.1979
8.32,0.3602,0.2676,10.2092,8.9917,4.0252,2.2888
8.34,0.1632,0.1589,10.1947,5.2841,2.1797,2.2486
8.36,0.3102,0.1822,10.2213,5.0002,0.4185,2.5741
8.38,0.3489,0.1352,10.1267,0.6488,-0.8846,2.9107
8.4,0.4495,0.2016,10.1813,4.016,-0.9513,3.6835
8.42,0.1558,0.0733,10.1282,-1.3528,-1.0552,3.2899
8.44,0.1925,0.0999,9.9489,2.5171,-2.3587,2.9008
8.46,0.2739,0.0135,9.9181,-4.8669,-6.2673,3.4275
8.48,-0.0028,-0.0746,9.8382,-5.2355,-2.755,1.6566
8.5,0.039,0.0179,9.801,-6.3989,-3.8061,2.5727
8.52,-0.1286,0.1321,9.874,-8.2313,-4.097,3.3757
8.54,-0.0916,0.027,9.9381,-6.4086,-7.0519,-0.6045
8.56,-0.096,-0.1022,10.1008,-7.8109,-1.8704,1.3449
8.58,-0.1608,-0.0389,10.0721,-10.5605,-3.7361,-1.8834
8.6,-0.4565,-0.1279,10.0226,-10.5739,-1.8271,-2.1455
8.62,-0.3874,-0.1823,10.2249,-5.1942,-0.6876,-1.1588
8.64,-0.3072,-0.0811,10.234,-7.2779,0.9488,-0.7765
8.66,-0.4817,-0.1229,10.2116,-5.3793,2.0619,-4.2292
8.68,-0.3504,-0.2335,10.2296,-4.9057,4.2955,-3.1416
8.7,-0.1988,-0.1615,10.2067,-7.4425,3.395,-2.3051
8.72,-0.1254,-0.2361,10.1034,-2.9023,2.5354,-1.4588
8.74,-0.1446,-0.2828,10.0267,-3.7759,3.861,-0.6174
8.76,-0.1501,-0.2667,9.9243,-1.8334,6.805,-0.673
8.78,0.0039,-0.1639,9.9904,2.6349,4.6834,-1.8472
8.8,-0.0865,-0.3093,9.7962,4.0631,3.5128,-1.4297
8.82,0.086,-0.2808,9.9266,1.3747,7.0419,0.6914
8.84,0.1969,-0.3422,9.9915,6.3633,3.6811,3.8487
8.86,0.3363,-0.2134,10.041,1.9439,3.7894,1.8901
8.88,0.3992,-0.3279,10.102,2.1219,6.4536,1.1271
8.9,0.2574,-0.2527,10.127,4.5602,3.483,3.878
8.92,0.4461,-0.2126,10.0936,7.6711,-1.6186,3.5032
8.94,0.4234,-0.2165,10.1236,10.5549,-0.4269,2.9894
8.96,0.3208,-0.1744,10.2201,6.4324,-0.4444,1.834
8.98,0.2957,-0.1585,10.2019,8.7447,-3.5286,1.8707
9.0,0.2106,-0.0189,10.1638,9.0984,-1.6915,-1.0543
9.02,0.3072,-0.0208,10.0174,6.8168,-5.6805,-0.2268
9.04,0.1666,-0.0891,10.0579,7.9261,-7.185,-1.3269
9.06,0.0104,-0.0632,9.9264,9.4985,-6.9662,-2.3436
9.08,0.048,-0.0155,9.9344,2.7652,-3.6272,-1.7482
9.1,-0.0113,0.0231,9.8514,1.9013,-4.8355,-2.5222
9.12,-0.0927,0.0264,9.9463,0.5761,-4.7392,-4.1219
9.14,-0.1206,0.0441,9.9914,3.4111,-5.2138,-2.8161
9.16,-0.1367,0.0675,10.1034,0.032,-0.7793,-4.8615
9.18,-0.3931,0.0536,10.12,-4.5867,-2.2275,-2.3106
9.2,-0.4786,0.109,10.2555,-2.2924,-0.7069,-2.5658
9.22,-0.4113,0.1134,10.1918,-1.646,1.0414,-1.9266
9.24,-0.3165,0.1989,10.1914,-7.4401,0.3514,-1.0053
9.26,-0.345,0.1792,10.1554,-3.8795,2.6958,0.4066
9.28,-0.2252,0.2875,10.0442,-7.929,2.4819,1.2248
9.3,-0.2414,0.3412,10.115,-7.5242,2.1337,-0.1301
9.32,-0.1768,0.3308,10.1035,-6.3079,6.6303,1.4416
9.34,-0.2313,0.2865,10.0096,-8.6849,3.4849,0.6602
9.36,-0.0417,0.1986,9.9126,-9.7315,3.9432,3.5486
9.38,-0.141,0.2951,9.8518,-8.2177,4.7051,3.2952
9.4,0.0567,0.2476,9.911,-9.6997,6.4057,1.4473
9.42,0.0832,0.2892,9.9741,-2.5036,5.1066,3.1673
9.44,0.1648,0.2389,10.1024,-3.1585,4.3869,3.4398
9.46,0.1264,0.2544,9.9852,-2.7158,3.7229,2.8695
9.48,0.4453,0.1249,10.0889,-4.3822,1.4182,1.8878
9.5,0.4087,0.2377,10.1999,-2.0571,0.2503,0.2004
9.52,0.3684,0.1604,10.1713,-0.153,-0.0678,0.7807
9.54,0.3414,0.1488,10.1372,1.4694,-3.3257,-0.666
9.56,0.1975,0.0927,10.2318,3.927,-2.4116,-1.2242
9.58,0.3523,0.1283,10.258,4.0871,-2.2974,-4.7659
9.6,0.1098,0.0786,10.0773,6.5949,-0.681,-4.2838
9.62,0.179,0.0844,10.0293,8.5871,-2.988,-2.97
9.64,0.1754,-0.0654,10.0706,3.2434,-2.7394,-3.1628
9.66,-0.0518,-0.0029,9.8348,9.2933,-5.4814,-3.1593
9.68,0.0864,0.0573,9.8074,8.2105,-3.2493,-3.6545
9.7,-0.0021,-0.0758,9.9402,7.3566,-6.5169,-3.7545
9.72,-0.0411,-0.011,9.9605,9.0725,-4.3036,-1.3993
9.74,-0.3043,-0.0334,10.1031,10.7502,-3.1047,-3.3887
9.76,-0.3688,-0.0936,10.1025,9.2627,-3.7509,1.1466
9.78,-0.3215,-0.0849,10.2639,5.0274,-3.1986,-1.2794
9.8,-0.3372,-0.1763,10.0759,6.0888,2.0707,1.2711
9.82,-0.3728,-0.1229,10.213,1.0905,-2.0266,1.5087
9.84,-0.3269,-0.2332,10.2089,3.9335,1.6135,0.6427
9.86,-0.2388,-0.2075,10.1813,1.4166,2.2752,1.3695
9.88,-0.2295,-0.2762,10.162,-1.4021,4.566,2.0667
9.9,-0.4283,-0.2581,10.0541,1.0113,5.638,4.8129
9.92,-0.0575,-0.187,9.9798,-2.7696,7.301,2.7666
9.94,-0.1457,-0.1514,10.017,-6.3229,4.0299,0.8756
9.96,0.0545,-0.1809,9.8403,-4.148,5.3426,1.5377
9.98,0.0473,-0.3312,9.8249,-7.3152,2.8564,-0.7014
10.0,0.2422,-0.2874,9.9133,-3.2916,6.1726,0.1431
10.02,0.2254,-0.3505,10.07,-7.0526,5.1522,0.1507
10.04,0.135,-0.192,10.0674,-8.1489,4.0328,0.8395
10.06,0.2424,-0.2833,10.1493,-6.169,4.2486,-2.1414
10.08,0.3581,-0.2043,10.1596,-8.8684,1.8788,-1.6355
10.1,0.418,-0.1532,10.1964,-10.4515,0.6876,-1.4936
10.12,0.2359,-0.1533,10.1745,-7.4316,-1.1081,-2.3546
10.14,0.3865,-0.1492,10.1125,-6.7253,0.33,-2.2782
10.16,0.1478,-0.0934,10.1598,-6.048,-3.0654,-2.0631
10.18,0.2212,-0.1405,10.0834,-4.6204,-4.5995,-2.6358
10.2,0.323,-0.0052,10.077,-3.5949,-4.4956,-3.0262
10.22,0.1833,-0.1066,9.9776,1.5381,-3.8643,-0.6775
10.24,0.1677,0.0268,9.8998,1.5742,-5.2775,-1.6678
10.26,0.0541,0.0622,9.8473,-0.1738,-6.0094,1.076
10.28,-0.0238,-0.0297,9.9845,0.558,-5.629,0.2388
10.3,-0.2065,0.0723,9.981,6.8557,-8.3283,1.0451
10.32,-0.2862,0.1197,10.1006,-0.0506,-2.2334,2.6691
10.34,-0.1609,0.1215,10.1026,6.5757,-2.5164,0.8943
10.36,-0.262,0.1886,10.1845,5.7428,-1.5524,1.673
10.38,-0.3086,0.2012,10.1463,4.9407,-1.145,3.1184
10.4,-0.2933,0.0864,10.2748,10.5232,-2.9307,2.6566
10.42,-0.3088,0.1407,10.1187,10.8062,2.4483,4.1709
10.44,-0.4115,0.1242,10.1839,8.0379,0.5589,3.4781
10.46,-0.3208,0.2256,10.1388,5.9245,-0.4444,3.1878
10.48,-0.2795,0.2277,10.0573,6.7174,3.7644,0.7122
10.5,-0.1639,0.1877,10.099,5.1921,5.5817,-1.2933
10.52,0.0425,0.2711,9.9245,9.6427,5.7698,-1.1044
10.54,0.0847,0.3516,9.829,6.8751,6.5312,-2.6053
10.56,0.1116,0.2267,9.8656,6.1297,3.707,-3.1693
10.58,0.1029,0.1858,9.874,-2.9483,3.2747,-2.5196
10.6,0.124,0.3368,9.9124,1.2332,4.5615,-3.1578
10.62,0.2571,0.2699,10.1466,-3.5332,3.2215,-4.119
10.64,0.2093,0.2582,10.1073,1.8027,4.8711,-2.4189
10.66,0.2111,0.313,10.1397,-1.2471,0.8026,-4.605
10.68,0.3821,0.1412,10.209,-0.5013,0.1994,-2.6841
10.7,0.4565,0.183,10.2483,-6.0626,-0.2066,-0.4905
10.72,0.2899,0.2008,10.2028,-6.3174,-1.7557,-2.2349
10.74,0.4501,0.2158,10.1523,-5.6113,0.6145,-0.2246
10.76,0.3779,0.0834,10.134,-5.4974,-3.7168,-0.4398
10.78,0.2207,0.2438,10.1894,-6.1727,-3.7313,1.6481
10.8,0.1947,0.1254,9.9726,-6.1191,-2.3852,2.5521
10.82,0.0418,-0.1325,9.8778,-8.2553,-4.6915,2.8571
10.84,-0.0207,-0.0048,9.9606,-9.0174,-5.7069,4.4404
10.86,-0.085,0.1098,9.8887,-9.492,-3.7804,3.6081
10.88,-0.1673,0.0207,9.8148,-5.2439,-4.3924,2.0319
10.9,-0.132,-0.1181,10.0466,-5.9235,-3.788,3.4477
10.92,-0.3498,-0.123,10.0869,-4.7013,-4.4518,1.9139
10.94,-0.1596,-0.1704,10.1596,-4.7505,-2.289,1.2119
10.96,-0.3745,-0.1536,10.1407,-3.649,-3.9017,1.401
10.98,-0.2524,-0.1453,10.1466,-1.9251,-1.1938,0.433
11.0,-0.4175,-0.1774,10.1873,2.0595,0.5571,-1.6569
11.02,-0.371,-0.1873,10.1912,-1.4226,1.5299,0.5458
11.04,-0.2328,-0.196,10.1472,3.9113,1.1043,-2.8615
11.06,-0.1717,-0.2676,10.0553,2.7099,1.307,-2.9796
11.08,-0.1405,-0.1471,10.1446,6.8946,1.898,-3.7828
11.1,-0.1049,-0.2051,9.9782,6.4209,3.5593,-1.4029
11.12,-0.177,-0.2979,9.8837,4.3967,5.0265,-2.3436
11.14,0.0163,-0.2658,9.7849,9.3638,5.5204,-3.6762
11.16,-0.0937,-0.2832,9.9355,10.9022,6.0815,-3.7562
11.18,0.0381,-0.3108,9.91,7.7104,4.7993,-0.2113
11.2,0.2134,-0.269,9.9551,3.7134,2.8065,-2.2192
11.22,0.3995,-0.2735,10.1937,6.2526,4.3293,-1.9007
11.24,0.2407,-0.171,10.2179,5.0734,3.3203,0.8409
11.26,0.4231,-0.2129,10.1291,4.8734,2.2054,-0.2019
11.28,0.3124,-0.1556,10.2096,7.6677,2.2207,3.3893
11.3,0.2823,-0.102,10.1897,4.4034,-3.3012,1.5626
11.32,0.2738,-0.1473,10.1752,-0.2592,-2.2011,2.0563
11.34,0.3016,-0.0875,10.1808,1.6022,-4.8397,3.4903
11.36,0.3452,-0.1281,10.0343,1.2325,-4.3986,3.0671
11.38,0.2087,-0.1984,9.9921,-4.8644,-6.3243,3.0874
11.4,0.1019,-0.0715,9.8889,-5.0407,-3.1357,2.5596
11.42,0.0473,-0.0897,9.9136,-3.3043,-4.4236,1.4095
11.44,-0.0421,0.0155,9.7648,-7.5523,-6.8408,2.8311
11.46,-0.1103,0.1664,9.9857,-6.5886,-4.5835,1.3978
11.48,-0.2339,0.1093,10.0457,-4.9578,-4.7214,1.4223
11.5,-0.267,0.1079,9.9496,-7.082,-3.3944,-2.6621
11.52,-0.4356,0.0909,10.1292,-8.9542,-1.9936,-1.6144
11.54,-0.2763,0.0559,10.0224,-5.6654,-4.7909,-3.6125
11.56,-0.4556,0.1313,10.2562,-7.3907,-0.1779,-0.3365
11.58,-0.2646,0.1879,10.1931,-6.0332,1.9029,-4.2833
11.6,-0.3239,0.1641,10.1208,-8.3346,2.655,-3.7471
11.62,-0.3664,0.3052,10.2001,-3.2198,4.5444,-2.4925
11.64,-0.241,0.2656,10.0335,-5.3977,3.4571,-1.689
11.66,-0.2157,0.2709,10.0318,-1.6634,6.5983,-1.8339
11.68,-0.1514,0.2861,9.993,-4.3471,5.0034,-0.6783
11.7,-0.0679,0.1595,9.8927,-1.6003,7.2363,-0.3889
11.72,-0.0873,0.1803,9.7909,2.4708,8.665,-0.2447
11.74,0.1248,0.2121,9.825,0.0026,2.7841,-0.7089
11.76,0.0564,0.2354,9.908,2.8914,5.1965,1.8269
11.78,0.1269,0.26,10.0635,0.5342,2.7034,1.5594
11.8,0.3845,0.1495,10.0966,3.3209,3.0865,1.8914
11.82,0.1748,0.2709,10.1417,4.7602,1.3725,2.7992
11.84,0.2222,0.2055,10.1875,3.3057,1.9832,3.1754
11.86,0.2081,0.1988,10.1825,4.2032,-0.1956,3.2008
11.88,0.7014,0.1761,10.2244,11.4931,-1.6224,3.4741
11.9,0.1624,0.0784,10.1975,9.0637,-1.2696,2.6859
11.92,0.3581,0.0141,10.2337,9.9709,-2.8117,1.1684
11.94,0.2747,0.158,10.0999,10.1268,-6.2476,-0.8338
11.96,0.1698,0.0665,10.0455,8.0699,-6.1111,0.5409
11.98,0.0657,0.1007,9.8776,8.5955,-7.2855,1.0711
12.0,0.0753,0.0653,9.9533,9.6722,-5.3577,-0.6582
12.02,-0.128,-0.0925,9.7689,3.3833,-5.1602,-1.1356
12.04,-0.0634,-0.1348,9.8906,6.0983,-5.1465,-2.4738
12.06,-0.0987,-0.125,10.1415,2.507,-5.0483,-3.7943
12.08,-0.3558,-0.1819,10.0979,-0.5382,-6.0518,-3.3891
12.1,-0.1394,-0.1501,10.1476,1.4163,-1.8378,-3.7836
12.12,-0.2605,-0.1586,10.217,1.5407,-4.2161,-2.9608
12.14,-0.3744,-0.0522,10.1378,-2.9459,-2.1979,-3.9946
12.16,-0.4367,-0.2011,10.231,-3.3878,-0.3147,-1.3439
12.18,-0.3967,-0.2254,10.2043,-5.1106,0.5566,0.0589
12.2,-0.2785,-0.1632,10.2622,-4.6081,-0.9736,-3.0793
12.22,-0.4891,-0.2573,10.156,-10.2685,1.6325,-0.4357
12.24,-0.1099,-0.2452,10.1037,-6.5673,2.447,-0.3924
12.26,-0.0242,-0.3466,10.0665,-8.2942,5.8331,1.9179
