time_s,Ax,Ay,Az,Gx,Gy,Gz
0.0,0.0347,0.2518,9.8127,-3.0656,5.4803,0.3119
0.02,0.0694,0.1496,9.9657,0.4561,5.6587,0.707
0.04,0.1482,0.2098,9.9087,3.8353,8.3503,2.2598
0.06,0.2106,0.243,10.0158,3.1784,3.3833,2.4377
0.08,0.2853,0.242,10.0809,7.5691,1.7737,2.3362
0.1,0.43,0.2401,10.0848,5.1917,0.5389,3.7193
0.12,0.3132,0.1829,10.1908,5.9781,2.0528,4.0256
0.14,0.3964,0.1471,10.2318,6.4712,-3.0993,1.3526
0.16,0.3684,0.1725,10.1541,4.6847,-2.3999,2.5437
0.18,0.1455,0.0388,10.0932,10.7579,-3.0378,0.3995
0.2,0.2139,0.0805,10.0607,7.7955,-5.9237,0.4243
0.22,0.0702,0.0449,9.9448,7.9592,-6.539,-1.7933
0.24,0.0851,-0.0539,9.8951,3.2504,-4.4421,-1.1782
0.26,-0.0889,0.0338,9.8882,8.1232,-5.5524,-2.8008
0.28,-0.0508,-0.1459,9.9391,2.8669,-1.871,-3.6282
0.3,-0.3401,0.0079,10.0644,0.7019,-3.3997,-3.0833
0.32,-0.3971,0.0101,10.1431,0.1473,-3.4054,-2.8176
0.34,-0.0603,-0.108,10.0853,-2.2873,-2.3218,-3.0041
0.36,-0.2412,-0.205,10.1861,-4.0788,-2.1394,-2.6675
0.38,-0.2933,-0.1816,10.1941,-2.579,0.6621,-1.2385
0.4,-0.3064,-0.2692,10.211,-7.8146,-0.2856,0.1078
0.42,-0.2934,-0.26,10.1601,-3.7281,4.7373,-1.0001
0.44,-0.1161,-0.3621,10.1214,-6.8675,5.0903,1.2052
0.46,-0.2744,-0.3077,10.0638,-5.581,6.0232,1.9803
0.48,-0.0964,-0.3323,9.9793,-4.4948,4.0918,2.8586
0.5,-0.0038,-0.2521,9.8494,-8.5933,3.584,2.0274
0.52,0.2522,-0.214,9.9238,-10.3631,6.5703,3.1418
0.54,0.2097,-0.2523,9.9782,-7.3483,6.7911,1.1412
0.56,0.2601,-0.2815,10.1654,-3.2754,3.654,1.1834
0.58,0.3636,-0.2636,10.1407,-4.8913,3.3002,3.0318
0.6,0.3296,-0.2121,10.1963,-4.8688,1.2625,0.3656
0.62,0.507,-0.2243,10.1274,1.0585,-1.415,1.7803
0.64,0.2575,-0.1932,10.1006,4.958,1.8716,1.6752
0.66,0.3365,-0.0788,10.1268,1.6756,-2.2948,-1.6494
0.68,0.2253,-0.0903,10.1407,1.1806,-2.9821,-2.3568
0.7,0.0036,-0.0246,10.0589,6.1437,-2.285,-3.105
0.72,0.0889,-0.0625,9.9542,6.8796,-1.4863,-3.5601
0.74,0.2544,-0.0432,9.8983,6.5165,-3.8163,-2.8761
0.76,0.0532,-0.0889,9.8486,6.1625,-5.3341,-3.8593
0.78,0.0368,0.1541,9.9364,10.0622,-1.525,-1.8238
0.8,-0.1316,0.1594,10.0394,5.3557,-3.3156,-4.5772
0.82,-0.3608,0.1396,10.1625,9.5306,-2.9284,-0.2744
0.84,-0.2525,0.033,10.161,8.6528,-1.232,1.4438
0.86,-0.4393,0.2072,10.1513,4.9952,-0.4604,0.2326
0.88,-0.3231,0.2085,10.1755,6.0905,0.7831,2.3467
0.9,-0.2553,0.2712,10.1847,1.6663,0.4836,1.815
0.92,-0.4216,0.2745,10.1348,0.7453,3.1299,2.8692
0.94,-0.1486,0.2655,10.0421,-2.9313,4.4156,2.1834
0.96,-0.1411,0.2015,10.0343,0.8892,3.4069,3.4935
0.98,-0.0635,0.3088,9.9425,0.0387,5.0935,1.4321
1.0,0.0576,0.3165,9.8811,-5.6572,4.3721,1.7028
1.02,0.0305,0.1911,9.8546,-8.7603,2.2643,1.0233
1.04,0.2184,0.2954,10.0103,-6.526,1.6728,0.2375
1.06,0.1368,0.1391,10.0886,-9.2578,3.364,0.4306
1.08,0.2387,0.2332,10.1453,-7.0056,3.6683,-1.392
1.1,0.317,0.2324,10.2039,-9.3299,2.4664,-2.4715
1.12,0.3367,0.2013,10.1988,-8.8467,-0.6915,-2.1708
1.14,0.3622,0.1695,10.237,-7.9795,-1.8163,-3.4405
1.16,0.5222,0.2144,10.2769,-3.3048,-1.3205,-3.004
1.18,0.3236,0.1406,10.1644,-5.3166,-2.2009,-1.2932
1.2,0.2161,0.1568,9.9901,-4.8543,-2.6547,-5.0993
1.22,0.0579,-0.048,9.9557,0.8844,-5.0365,-1.0242
1.24,0.0308,0.0238,9.7649,-3.2907,-6.5383,-2.4346
1.26,0.0083,-0.0437,9.8357,1.038,-5.3596,-0.3569
1.28,-0.115,-0.0559,9.9497,0.9306,-4.6707,1.9371
1.3,-0.1671,-0.1096,10.0461,2.6768,-4.9173,1.4404
1.32,-0.2219,-0.014,10.1458,6.5575,-0.9204,3.3008
1.34,-0.2082,-0.1596,10.159,6.4085,-3.3069,2.2368
1.36,-0.4985,-0.2086,10.2121,7.7161,-1.4328,3.337
1.38,-0.1861,-0.2005,10.2152,9.7253,-1.0016,2.6795
1.4,-0.4071,-0.1848,10.0711,9.4654,0.5804,2.1507
1.42,-0.2352,-0.2426,10.2903,8.0829,0.639,1.422
1.44,-0.2043,-0.2074,10.095,8.0712,4.9369,2.7189
1.46,-0.0456,-0.2566,9.9817,5.8772,3.7373,-0.8519
1.48,-0.0539,-0.2705,9.8612,6.285,6.8418,-1.0242
1.5,-0.0656,-0.2604,9.7604,0.2688,5.4507,-1.4041
1.52,0.1504,-0.2776,9.8896,2.7083,3.9828,-1.9347
1.54,0.1383,-0.2343,9.9486,1.8684,5.4092,-4.3863
1.56,0.314,-0.2118,10.0065,1.1125,3.4645,-3.4611
1.58,0.2629,-0.2189,10.204,-1.5717,3.9751,-3.1673
1.6,0.2498,-0.249,10.1781,-2.5433,1.0265,-2.9004
1.62,0.4109,-0.2038,10.2459,-6.961,0.2839,-3.2599
1.64,0.3373,-0.1588,10.1632,-6.2725,0.0522,-2.1333
1.66,0.3353,-0.1281,10.1512,-4.3537,-3.3858,0.1606
1.68,0.2173,-0.1977,10.123,-3.7168,-4.0934,1.7842
1.7,0.2209,-0.1478,10.055,-6.9624,-3.7808,-0.3873
1.72,0.1623,-0.0445,9.9832,-8.1993,-7.6174,2.1819
1.74,0.0802,-0.0007,9.8631,-8.7266,-5.8652,3.8789
1.76,-0.0664,0.0965,9.8777,-6.1609,-5.0591,1.668
1.78,-0.0232,0.1035,9.9324,-5.9298,-4.4297,4.1258
1.8,-0.3702,0.1144,9.982,-2.5573,-2.1397,2.061
1.82,-0.2531,0.0756,10.1217,-1.6388,-3.2733,0.0769
1.84,-0.0962,0.0944,10.3279,-2.088,-1.6109,0.2032
1.86,-0.3615,0.1898,10.2247,0.125,-1.4374,0.0462
1.88,-0.3405,0.0355,10.238,4.1568,1.4883,-0.6417
1.9,-0.3066,0.2148,10.2253,0.8208,4.0278,-0.5893
1.92,-0.3358,0.1023,10.1618,3.3247,1.9792,-3.2969
1.94,-0.364,0.2892,10.0666,5.342,4.9201,-2.6723
1.96,-0.1347,0.2552,9.9964,4.7365,4.9171,-2.1008
1.98,-0.1698,0.2462,9.9013,7.0094,4.025,-3.7617
2.0,0.1607,0.2246,9.8393,3.6856,4.4817,-2.3461
2.02,0.0844,0.2233,9.9677,6.5376,6.5523,-3.3483
2.04,0.1954,0.1288,10.0562,8.6687,4.0606,-3.1675
2.06,0.1668,0.2718,10.0661,6.1366,5.4064,-0.6803
2.08,0.3493,0.2599,10.1108,6.2482,3.5928,-2.1923
2.1,0.2462,0.2942,10.1962,5.8825,2.8618,-1.1117
2.12,0.4052,0.0881,10.1588,5.5593,-0.128,2.3641
2.14,0.3052,0.1288,10.1577,5.5478,0.5065,1.1875
2.16,0.4823,0.2637,10.1267,5.9785,-5.287,2.436
2.18,0.3048,0.2133,10.1293,2.711,-1.217,3.3671
2.2,0.2708,0.1216,10.0474,-5.3484,-5.1008,4.562
2.22,0.2575,0.0714,10.0678,-1.1598,-2.0965,3.0241
2.24,0.0744,-0.0562,9.8248,-3.7311,-6.5198,-0.6482
2.26,-0.0889,0.0079,9.7938,-2.362,-4.2814,2.3334
2.28,0.0228,0.0018,9.868,-6.1627,-4.4034,1.4654
2.3,-0.1508,0.0075,10.0925,-5.0938,-7.0328,0.4641
2.32,-0.3382,-0.0782,10.0983,-7.3497,-3.8442,-1.9011
2.34,-0.4432,-0.1265,10.1179,-8.6296,-1.3693,-2.996
2.36,-0.2973,-0.1905,10.131,-4.1066,-1.679,-3.5248
2.38,-0.3362,-0.2081,10.1912,-8.1664,-2.4014,-1.2387
2.4,-0.4236,-0.3282,10.1886,-5.094,3.075,-3.1335
2.42,-0.1745,-0.2623,10.1604,-6.4831,3.7608,-1.7792
2.44,-0.3399,-0.1863,10.1608,-5.8481,3.1855,-3.105
2.46,-0.1548,-0.2428,10.0608,-0.7152,1.0219,-3.771
2.48,-0.1127,-0.2178,9.91,0.6458,3.6534,0.2858
2.5,-0.0567,-0.1946,9.8873,-0.6044,5.1781,0.4183
2.52,-0.0559,-0.2547,9.8864,2.9964,3.5247,0.9678
2.54,0.0944,-0.2075,10.0086,4.4348,4.1552,2.1193
2.56,0.2048,-0.2292,9.98,6.5602,3.2179,3.397
2.58,0.2441,-0.2714,10.1436,4.5278,3.5481,3.2806
2.6,0.4041,-0.2434,10.1864,1.8836,2.0624,2.4971
2.62,0.4522,-0.2088,10.1526,6.2774,0.6607,3.085
2.64,0.3076,-0.0936,10.308,9.3159,-3.1786,1.6359
2.66,0.3263,-0.1385,10.1749,8.8341,1.0616,1.4977
2.68,0.191,-0.1969,10.1409,12.0325,-5.8024,1.2873
2.7,0.1629,-0.0026,10.0372,9.7345,-4.4,0.0387
2.72,0.02,-0.0284,10.0084,10.1054,-5.1369,-0.5134
2.74,0.1176,-0.0987,9.8135,2.13,-5.0786,0.2308
2.76,-0.0862,-0.0588,9.7952,4.6793,-7.617,-2.221
2.78,-0.0792,0.0624,9.9534,5.3725,-2.281,-2.906
2.8,-0.2634,0.059,9.9725,3.9544,-4.264,-4.5871
2.82,-0.2928,0.1164,10.0854,0.8221,-0.8252,-3.5456
2.84,-0.2755,0.0021,10.148,-5.3954,-2.7065,-3.0831
2.86,-0.3622,0.2027,10.1718,-3.3799,0.7907,-3.214
2.88,-0.3688,0.1357,10.1995,-0.8503,0.0138,-0.8502
2.9,-0.4065,0.235,10.1967,-7.1781,1.1062,0.1916
2.92,-0.3694,0.2245,10.0848,-7.1756,5.2666,1.8701
2.94,-0.196,0.1088,10.1455,-7.9307,1.9099,0.8942
2.96,-0.1341,0.2722,10.015,-8.7556,3.7339,2.3448
2.98,-0.0893,0.1343,9.9249,-9.8154,4.4158,0.0733
3.0,-0.0553,0.2553,9.7843,-8.0107,5.3288,2.3086
3.02,0.0423,0.0732,9.8781,-7.952,5.0283,4.8714
3.04,0.135,0.2145,9.9358,-3.6776,5.1321,2.8682
3.06,0.2015,0.1496,10.1556,-5.1142,3.4213,2.4824
3.08,0.1623,0.2391,10.1045,-3.3911,3.3111,2.3023
3.1,0.3343,0.1896,10.1821,-5.1215,1.2156,2.7241
3.12,0.3293,0.1727,10.1144,2.4531,2.1749,0.7985
3.14,0.3651,0.2442,10.2314,0.0987,-0.726,-0.2981
3.16,0.3389,0.0768,10.1727,2.8678,-3.2,-0.8281
3.18,0.3172,0.2568,10.0639,2.61,-2.5873,-2.149
3.2,0.2569,0.0331,10.0323,1.3926,-3.6514,-1.1434
3.22,0.1931,0.0094,9.9575,4.885,-1.442,-4.3368
3.24,0.0571,-0.0623,9.8572,4.1184,-1.9701,-3.2444
3.26,0.0543,-0.126,9.8042,8.9294,-6.0401,-2.9003
3.28,-0.1748,-0.082,9.904,5.5326,-4.2659,-2.3593
3.3,-0.2073,-0.1033,9.9714,9.8655,-1.6752,-1.8163
3.32,-0.2767,-0.1435,10.0386,6.9888,-2.4199,-0.4147
3.34,-0.2472,-0.0823,10.2121,7.3505,-1.6442,0.1964
3.36,-0.4713,-0.2173,10.1603,6.8904,-1.7006,1.4559
3.38,-0.3229,-0.1665,10.2434,-1.3159,3.4307,0.9385
3.4,-0.207,-0.1612,10.1689,3.6044,1.3508,2.8145
3.42,-0.2722,-0.1454,10.1198,3.3497,3.3147,2.8252
3.44,-0.293,-0.1543,10.1519,1.7743,3.7139,2.0372
3.46,-0.0371,-0.2809,10.1363,-3.9183,2.9951,2.6196
3.48,-0.0159,-0.259,9.9847,-2.3817,6.7261,2.6218
3.5,-0.1027,-0.2383,9.7228,-4.7728,3.4565,1.7292
3.52,0.1524,-0.0621,9.965,-7.1492,2.6309,1.0162
3.54,0.2068,-0.2031,9.992,-7.0676,6.5725,0.2995
3.56,0.1717,-0.2491,10.0749,-7.7702,5.0404,-2.1466
3.58,0.2593,-0.2318,10.1765,-5.7281,3.8666,-1.3424
3.6,0.3064,-0.2109,10.2023,-8.9914,2.1994,-4.2994
3.62,0.3542,-0.2,10.2236,-8.9087,-2.0694,-1.5021
3.64,0.3047,-0.1763,10.2536,-9.6171,-1.2462,-2.2292
3.66,0.3194,-0.1328,10.1555,-4.9119,-2.1846,-2.1363
3.68,0.2764,-0.2334,10.1524,-3.4858,-4.7906,-3.7552
3.7,0.2465,-0.1469,10.0764,-1.4635,-3.6602,-1.5784
3.72,0.2118,0.0734,9.9877,-2.7005,-5.0073,-2.0768
3.74,0.0693,-0.0447,9.8635,-0.0541,-5.1851,-0.2965
3.76,0.0036,0.0731,9.8404,1.9841,-2.282,-0.9531
3.78,-0.1252,0.0811,10.0745,2.8449,-6.4149,2.0973
3.8,-0.1542,0.0785,10.0898,5.429,-1.5293,1.992
3.82,-0.327,0.1684,10.1166,7.4169,-2.8441,1.893
3.84,-0.2356,0.2055,10.1939,5.1472,-0.3481,3.2139
3.86,-0.3695,0.1017,10.1908,7.5845,1.1709,4.6933
3.88,-0.4112,0.231,10.2906,4.8103,0.9989,2.7711
3.9,-0.2843,0.2676,10.159,2.7687,1.3465,1.8724
3.92,-0.2882,0.2308,10.1133,8.1449,4.9793,0.4373
3.94,-0.2628,0.2218,10.0973,7.9929,6.6803,2.1271
3.96,-0.2104,0.185,9.9877,4.9084,5.18,-0.7073
3.98,-0.1308,0.1687,9.8627,4.6831,0.9519,-0.7127
4.0,-0.0742,0.2696,9.8094,5.6941,3.6227,-2.5759
4.02,0.1301,0.2655,9.9563,4.8639,7.3187,-2.1214
4.04,0.2614,0.2932,10.0729,0.9845,3.3439,-0.5299
4.06,0.3559,0.0639,9.989,2.1423,6.2056,-2.7694
4.08,0.3316,0.1722,10.1882,0.9597,3.9687,-1.991
4.1,0.2215,0.3002,10.1603,-5.3259,1.9425,-3.0685
4.12,0.2679,0.1334,10.2126,-3.9078,-0.3396,-0.8411
4.14,0.4515,0.0054,10.297,-2.6842,-1.2036,-1.7709
4.16,0.33,0.1851,10.1159,-4.1124,-1.5661,0.1482
4.18,0.3334,0.1255,10.1118,-6.1571,-3.3085,0.7183
4.2,0.1659,0.0822,10.0403,-8.1255,-1.8856,0.7625
4.22,0.0308,0.0781,9.9619,-5.5456,-7.337,3.5174
4.24,0.121,0.11,9.916,-9.4709,-4.7084,2.2023
4.26,-0.1051,-0.0699,9.8438,-8.4221,-3.8446,1.487
4.28,-0.0587,-0.0248,9.9631,-5.8664,-4.3472,3.5913
4.3,-0.2944,-0.1819,10.0164,-6.537,-5.812,3.1195
4.32,-0.3584,-0.1406,10.1531,-1.964,-5.1116,1.5761
4.34,-0.17,-0.1777,10.2126,-3.1912,-1.6632,2.4277
4.36,-0.2574,-0.0829,10.2217,-2.3309,0.0529,-0.2558
4.38,-0.4162,-0.0956,10.1375,-1.5677,-0.8304,-1.2755
4.4,-0.3369,-0.1252,10.1617,2.3259,0.329,-2.7547
4.42,-0.237,-0.2475,10.213,-0.8023,3.0917,-3.379
4.44,-0.2195,-0.2326,9.9811,4.9772,4.9104,-2.7586
4.46,0.0067,-0.2758,9.9966,7.0576,3.22,-2.9356
4.48,-0.0361,-0.2172,9.8734,9.6741,0.5247,-3.415
4.5,0.0208,-0.1751,9.7916,10.8471,7.3214,-3.5618
4.52,-0.0543,-0.1546,9.9859,11.8991,5.2311,-5.3843
4.54,0.1766,-0.2423,9.8957,7.1663,7.5158,-1.6276
4.56,0.1426,-0.2589,10.0566,7.3307,5.0135,-2.8373
4.58,0.3908,-0.25,10.1265,8.3557,5.0462,-0.4978
4.6,0.2354,-0.2503,10.1307,7.5609,1.8961,0.6513
4.62,0.4185,-0.1291,10.2412,7.9855,0.2643,3.1329
4.64,0.3082,-0.2573,10.2703,10.2525,1.6213,3.0003
4.66,0.3732,-0.1447,10.099,2.1615,-3.9763,2.2099
4.68,0.3432,-0.119,10.106,-2.5822,-1.0167,4.041
4.7,0.305,-0.2097,10.1346,-2.2302,-4.1982,4.0569
4.72,0.06,-0.153,9.9981,-2.451,-4.1736,1.5478
4.74,-0.018,-0.0806,9.8804,1.333,-4.7814,1.6649
4.76,0.077,0.0619,9.8532,-2.1192,-4.7696,1.4678
4.78,-0.2356,0.0348,9.9765,-4.0142,-4.1925,0.3325
4.8,-0.2291,0.0761,10.0315,-10.4408,-3.3254,-0.5319
4.82,-0.2197,0.0838,10.1763,-6.4373,-6.0705,-0.5153
4.84,-0.2411,0.1372,10.2224,-5.0362,-3.4108,-2.625
4.86,-0.3543,0.1286,10.1744,-9.2482,-0.4519,-2.4409
4.88,-0.4437,0.1559,10.1271,-5.0765,-2.0362,-2.546
4.9,-0.3717,0.1747,10.2969,-5.8732,-0.2191,-3.9818
4.92,-0.2851,0.2154,10.2598,-2.3602,0.7746,-2.6921
4.94,-0.3404,0.2191,10.0826,-1.9704,0.499,-2.2685
4.96,-0.197,0.29,10.0212,-3.559,3.9121,-1.6682
4.98,-0.107,0.2897,9.963,-0.7023,1.5575,-1.1903
5.0,-0.1118,0.4239,9.6973,0.7768,5.0308,-1.3597
5.02,0.1096,0.3089,9.9881,2.675,4.2169,-0.3578
5.04,0.15,0.3038,10.0015,7.2134,4.2856,2.4753
5.06,0.1342,0.3231,10.0294,1.3638,4.7001,2.3989
5.08,0.2304,0.2343,10.1516,2.8979,0.3831,3.0522
5.1,0.4737,0.2084,10.1464,4.2389,4.6026,2.4021
5.12,0.5499,0.1414,10.2779,5.7437,-0.224,5.3288
5.14,0.3753,0.0967,10.1718,5.345,0.1161,2.7713
5.16,0.2698,0.1848,10.1938,9.408,-0.3439,0.9239
5.18,0.2374,0.1207,10.0403,6.4414,-5.9215,1.2859
5.2,0.1701,0.1038,10.0575,11.1134,-6.7554,-0.7139
5.22,0.0979,0.1867,9.9632,8.1006,-6.5315,0.2229
5.24,0.0781,-0.0155,9.8723,1.2279,-4.7238,-1.528
5.26,-0.121,0.0716,9.8956,3.8412,-5.6002,-2.8414
5.28,-0.003,-0.0072,9.8901,0.2991,-7.8872,-2.7992
5.3,-0.2726,-0.074,9.9447,0.8471,-1.046,-1.569
5.32,-0.2883,-0.1263,10.0469,-1.6334,-3.4475,-4.496
5.34,-0.2944,-0.105,10.1411,-0.8131,-4.1546,-2.8747
5.36,-0.4989,-0.0942,10.1471,-5.7459,-3.0148,-2.7294
5.38,-0.2657,-0.1321,10.2114,-4.6687,2.471,-2.8639
5.4,-0.2758,-0.192,10.1934,-7.5457,0.2937,1.2524
5.42,-0.3157,-0.1317,10.0658,-8.7477,4.2988,-0.3956
5.44,-0.2358,-0.3093,10.0226,-4.3573,7.7926,1.092
5.46,-0.2265,-0.2774,10.0123,-10.998,6.76,2.6331
5.48,-0.0693,-0.1711,9.8697,-4.9272,4.2096,4.1495
5.5,0.0643,-0.3363,9.837,-9.9267,2.9821,1.3056
5.52,0.081,-0.26,9.8694,-6.7277,4.9447,1.7142
5.54,0.2929,-0.1946,9.9771,-6.662,3.7558,1.9433
5.56,0.0673,-0.1655,10.0295,-5.3798,5.3193,3.3594
5.58,0.3647,-0.2205,10.1191,-2.1839,1.4353,1.8371
5.6,0.3483,-0.173,10.1755,0.6232,-0.1766,1.5363
5.62,0.3767,-0.265,10.2164,0.2728,-0.3944,0.1319
5.64,0.3609,-0.2019,10.2285,3.2344,-0.0947,-1.6726
5.66,0.0792,-0.0831,10.177,4.8224,0.1948,-0.3611
5.68,0.2439,-0.1158,10.1837,5.2243,-0.6844,-2.4374
5.7,0.2364,-0.0823,10.145,3.4754,-3.8694,-2.9699
5.72,0.2592,-0.105,9.9624,5.6694,-3.5554,-4.0666
5.74,0.0331,-0.0915,9.9152,9.941,-5.8926,-3.1044
5.76,0.0366,0.089,9.8233,8.3723,-4.8367,-3.7929
5.78,-0.1322,0.1537,10.0133,5.8368,-5.6592,-0.8528
5.8,-0.3099,0.1069,9.9813,11.6898,-4.5041,-1.3259
5.82,-0.2724,-0.0411,10.1003,9.6836,-2.9744,-0.562
5.84,-0.3341,0.1372,10.1573,8.2988,-3.0928,0.8771
5.86,-0.2476,0.1412,10.1979,5.6412,-1.3615,1.087
5.88,-0.3203,0.2232,10.1577,5.0886,0.4266,0.6889
5.9,-0.4465,0.118,10.2362,1.786,0.4781,4.0693
5.92,-0.3211,0.18,10.1503,0.1487,5.4162,2.9451
5.94,-0.0506,0.196,10.0857,-1.9078,5.2334,3.0779
5.96,-0.155,0.2547,10.0485,-2.0022,5.653,2.0633
5.98,0.0342,0.2628,9.9303,-4.5442,5.9253,2.5009
6.0,-0.0681,0.2428,9.8452,-9.4677,5.2613,1.8084
6.02,0.0003,0.2517,9.8781,-4.3327,4.8098,1.233
6.04,0.2089,0.2598,9.9177,-8.8027,5.0198,0.5467
6.06,0.0168,0.2237,10.0809,-5.479,5.0793,-0.575
6.08,0.1716,0.2176,10.073,-12.3223,6.3107,-0.9489
6.1,0.2876,0.1772,10.157,-7.4752,0.6851,-1.0385
6.12,0.1839,0.2308,10.1238,-5.707,0.4707,-0.335
6.14,0.3102,0.1783,10.2543,-3.6478,0.4354,-2.0987
6.16,0.2923,0.2171,10.1758,-4.9638,-0.91,-2.068
6.18,0.349,0.12,10.0462,-2.0972,-5.9623,-2.292
6.2,0.19,0.1384,10.0653,0.079,-5.5937,-3.1985
6.22,0.2984,0.0518,10.0697,-5.0842,-6.761,-0.7262
6.24,0.0051,0.0307,9.8538,1.6905,-4.8464,0.7122
6.26,-0.0525,-0.0633,9.8714,2.5788,-4.5807,0.029
6.28,-0.1562,-0.0863,9.8907,-2.2366,-1.8362,1.149
6.3,-0.2985,-0.0553,10.0692,0.1366,-7.417,0.4401
6.32,-0.1684,-0.1178,10.0515,4.7915,-5.8068,2.4742
6.34,-0.2872,-0.062,10.1475,3.1556,-0.427,3.6379
6.36,-0.3167,-0.2655,10.3223,4.1134,-0.2995,2.7477
6.38,-0.3146,-0.1061,10.2985,8.2283,0.7996,1.0754
6.4,-0.3502,-0.3494,10.2156,9.7742,3.169,1.9172
6.42,-0.3164,-0.2096,10.1326,9.6578,1.3911,1.991
6.44,-0.0414,-0.3066,10.1009,9.8062,7.1485,1.883
6.46,-0.1604,-0.2855,10.0585,8.2145,4.9464,1.0867
6.48,-0.0147,-0.2068,9.9419,2.0569,3.393,0.4271
6.5,0.0281,-0.2154,9.8895,5.7532,4.6878,-0.8767
6.52,0.116,-0.1578,9.8699,3.9251,2.5528,-3.5808
6.54,0.1415,-0.1724,9.9325,1.1452,5.2004,-5.2092
6.56,0.2913,-0.3379,10.1307,-3.0639,3.0231,-3.5818
6.58,0.3548,-0.2367,10.1231,-3.5805,1.7838,-2.0771
6.6,0.2991,-0.1458,10.1907,-4.0617,3.5493,-1.5347
6.62,0.2148,-0.1552,10.2562,-4.7299,0.6023,-0.0464
6.64,0.2839,-0.0935,10.2161,-6.4347,-0.96,-2.3034
6.66,0.3612,-0.1942,10.1982,-5.0989,-4.2467,0.1039
6.68,0.266,-0.0952,10.1483,-5.2718,-3.0864,-0.5046
6.7,0.0949,-0.1583,9.9624,-6.4071,-3.573,2.1164
6.72,0.1313,-0.0805,9.9264,-4.8628,-5.3875,1.8535
6.74,-0.0564,-0.0077,9.9187,-8.5581,-0.4455,2.2095
6.76,-0.1338,0.0551,9.865,-5.1069,-5.1749,2.811
6.78,-0.1269,0.113,9.9566,-5.5273,-5.109,1.9815
6.8,-0.1982,0.0458,9.9811,-7.222,-6.5454,4.9024
6.82,-0.2301,0.0854,10.1032,-2.2305,-2.3583,2.3524
6.84,-0.3344,0.1143,10.1847,1.5238,0.5421,0.8989
6.86,-0.2942,0.1753,10.1782,-0.3822,-1.7982,0.3239
6.88,-0.2712,0.2199,10.1389,-1.0335,-0.1507,-0.9958
6.9,-0.3843,0.1996,10.2042,1.2055,1.2679,-1.6417
6.92,-0.1433,0.1916,10.0903,0.5246,1.9892,-1.7584
6.94,-0.2109,0.1887,10.1584,2.749,1.6441,-3.4725
6.96,-0.2303,0.2554,10.0777,3.0091,2.4197,-3.1222
6.98,-0.1926,0.2999,9.845,5.8137,2.4968,-4.4364
7.0,0.0758,0.3281,9.8329,11.0415,4.1159,-1.0954
7.02,0.0184,0.2072,9.8628,8.761,6.5797,-3.3065
7.04,0.2322,0.2491,9.994,8.4007,3.0564,-2.7177
7.06,0.1274,0.183,10.0993,4.2027,4.0531,-1.0058
7.08,0.3246,0.1379,10.1431,1.955,1.486,0.6157
7.1,0.2036,0.2295,10.2397,4.0494,-0.5032,0.2143
7.12,0.3709,0.1558,10.1602,0.6549,-2.0147,-0.6231
7.14,0.3514,0.2272,10.1473,4.4213,-2.1555,1.1707
7.16,0.2459,0.1715,10.2362,0.7868,0.8567,2.1511
7.18,0.1025,0.0914,10.2339,1.1723,-0.8662,2.9711
7.2,0.156,0.0195,10.0593,2.9575,-2.2386,3.725
7.22,0.1534,0.0453,9.9424,-3.5483,-6.5472,4.289
7.24,0.1261,0.0798,9.8887,-6.9443,-3.2327,0.0426
7.26,0.0335,-0.0929,9.8952,-9.4981,-3.4169,1.212
7.28,-0.1289,-0.0768,9.8938,-7.7338,-4.8651,0.8648
7.3,-0.3534,-0.1444,10.0458,-10.0588,-5.6639,-0.4435
7.32,-0.1618,-0.0739,9.9884,-6.2203,-1.5093,-3.1841
7.34,-0.1817,-0.0949,10.2147,-10.3921,-4.9488,-3.6989
7.36,-0.3295,-0.1698,10.1927,-4.6978,-2.2698,-1.8173
7.38,-0.4338,-0.0605,10.1339,-7.7698,-2.5641,-2.7146
7.4,-0.3698,-0.184,10.1724,-7.6311,1.1566,-2.4736
7.42,-0.2285,-0.2697,10.1904,-4.7917,3.2353,-1.1825
7.44,-0.2603,-0.1557,10.0014,-5.7245,5.3036,-1.1919
7.46,-0.2434,-0.2794,9.9853,-4.1259,3.6265,-2.2102
7.48,-0.2224,-0.2634,9.9164,-0.7638,3.1713,-2.8864
7.5,0.1242,-0.2356,9.8968,-0.4709,5.5568,0.3292
7.52,0.038,-0.2023,9.9015,2.1944,5.0997,0.0581
7.54,0.2367,-0.2202,10.0652,5.1664,3.8142,0.8302
7.56,0.2333,-0.2138,10.1357,0.5125,2.2869,1.8469
7.58,0.261,-0.2406,10.0986,2.9642,2.6132,0.9679
7.6,0.2817,-0.1584,10.2628,8.2465,1.8982,3.3037
7.62,0.3136,-0.1422,10.2314,8.0795,3.031,3.9059
7.64,0.3012,-0.1411,10.243,7.8322,-0.0765,2.3023
7.66,0.2946,-0.1925,10.0818,7.9141,-1.7161,2.5077
7.68,0.0608,-0.2307,10.1658,6.583,-1.8233,1.9725
7.7,0.1538,-0.1082,10.1154,6.3394,-6.1927,-1.432
7.72,0.0609,-0.0996,9.9965,7.5129,-4.9197,0.321
7.74,-0.0196,-0.0085,9.8982,4.4772,-5.0138,-1.6572
7.76,-0.0941,-0.1044,9.8564,9.7216,-4.6978,-3.5743
7.78,-0.1834,0.0168,9.9586,7.404,-7.4398,-2.5477
7.8,-0.2564,-0.0371,10.0458,0.6045,-4.2613,-4.3488
7.82,-0.3368,0.0811,10.0846,-5.153,-3.5911,-2.7466
7.84,-0.3312,0.2091,10.1311,-6.9311,-0.5628,-0.7599
7.86,-0.4482,0.1713,10.1789,-3.5305,-1.1485,0.1878
7.88,-0.1876,0.1359,10.1622,-4.0926,0.3746,-1.9961
7.9,-0.3002,0.3318,10.2008,-4.0729,0.2499,0.4398
7.92,-0.3378,0.1667,10.1451,-2.6374,1.5052,-0.2208
7.94,-0.1984,0.227,10.069,-5.3742,2.64,1.2181
7.96,-0.1451,0.1547,10.0338,-9.1923,4.6994,-0.6372
7.98,-0.052,0.1835,9.9376,-7.3769,6.563,4.0932
8.0,0.0328,0.1928,9.8108,-8.9419,3.5994,5.0026
8.02,0.0953,0.2609,9.9393,-7.579,4.9642,2.4259
8.04,0.1994,0.2252,10.0038,-6.3554,3.5862,1.5567
8.06,0.3024,0.1395,10.1448,-4.8755,3.2489,2.7454
8.08,0.3869,0.2113,10.1871,-5.0423,1.907,1.7214
8.1,0.2231,0.1559,10.0751,-1.1882,1.1204,0.9826
8.12,0.4775,0.2303,10.1081,-0.4057,2.5454,1.485
8.14,0.4211,0.0855,10.1874,-2.1644,-0.5956,-2.1483
8.16,0.2634,0.107,10.1796,4.0059,-3.6455,-1.5953
8.18,0.1708,0.1118,10.2301,4.4348,-1.4195,-0.7615
8.2,0.1518,0.1251,10.1454,3.0013,-2.0388,-2.3756
8.22,0.0863,0.0076,9.9802,6.5386,-3.8098,-4.4831
8.24,0.1227,0.1215,9.8776,6.2084,-3.787,-2.9782
8.26,0.0263,-0.0495,9.8614,6.1562,-3.4643,-1.8085
8.28,-0.1673,-0.1638,10.102,10.4531,-4.0959,-2.4827
8.3,-0.1466,-0.0822,9.9872,4.4442,-5.9294,-1.8085
8.32,-0.3081,-0.1148,10.1579,7.9378,-3.0247,-1.7168
8.34,-0.3839,-0.1455,10.1259,8.2202,-1.0642,-0.0582
8.36,-0.3667,-0.1497,10.1878,6.0626,-0.607,1.2636
8.38,-0.3169,-0.2144,10.2817,4.604,-0.4751,2.2315
8.4,-0.3086,-0.2234,10.2072,-0.835,1.4268,2.8969
8.42,-0.3601,-0.2572,10.1564,-0.4288,4.5628,3.9322
8.44,-0.3806,-0.2897,10.1021,-4.1114,4.5085,3.2832
8.46,-0.0763,-0.2533,10.0079,-2.5923,5.0164,1.7827
8.48,-0.1129,-0.2742,9.8831,-3.7647,4.1666,1.2465
8.5,0.0145,-0.2298,9.7215,-5.4806,5.2163,3.2267
8.52,0.0877,-0.3345,9.8957,-6.4548,1.9912,0.721
8.54,0.1507,-0.2898,9.9585,-6.5294,3.336,-0.4306
8.56,0.1428,-0.286,10.0356,-7.111,3.739,-0.3405
8.58,0.2625,-0.3038,10.2129,-6.6555,0.9794,-1.3353
8.6,0.3927,-0.25,10.2719,-11.5727,1.3908,-3.1237
8.62,0.4206,-0.099,10.2845,-11.3687,0.2212,-2.5724
8.64,0.1851,-0.1684,10.2173,-5.9046,-3.0805,-4.1091
8.66,0.2939,-0.1827,10.2866,-5.1961,-0.9864,-2.6533
8.68,0.313,-0.1623,10.11,-5.0299,-3.9605,-1.8104
8.7,0.0996,-0.1209,10.1083,-8.075,-5.9931,-3.034
8.72,0.2004,-0.0893,9.9416,-5.4946,-6.5189,0.3981
8.74,0.0662,-0.0708,9.9499,-1.6436,-2.3781,-2.3384
8.76,0.149,0.0409,9.781,0.5391,-4.444,-0.119
8.78,-0.2154,0.0743,9.9733,2.7653,-4.1684,1.9025
8.8,-0.2792,0.0984,10.0978,5.7146,-4.6958,1.9281
8.82,-0.268,0.1092,10.1323,2.6953,-3.1852,1.777
8.84,-0.185,0.1329,10.1463,6.5543,-2.95,2.5027
8.86,-0.3844,0.1531,10.2445,7.7838,-0.685,3.9468
8.88,-0.3264,0.2347,10.1863,6.8796,-0.1708,3.4635
8.9,-0.3752,0.2191,10.1968,8.4219,3.0502,2.6241
8.92,-0.2379,0.1761,10.0534,5.8162,3.4423,1.8213
8.94,-0.2804,0.1734,9.9779,8.9027,3.4549,1.117
8.96,-0.1767,0.1386,10.0557,8.021,4.4319,0.6711
8.98,-0.04,0.3615,10.0047,8.0731,4.29,-2.2093
9.0,0.0494,0.1898,9.8493,5.3977,5.3457,-1.8247
9.02,0.0976,0.2684,9.8936,3.8411,5.0384,-3.1232
9.04,0.1534,0.2779,9.9731,2.5703,2.2192,-1.9626
9.06,0.4182,0.2072,10.0781,3.7617,2.4932,-0.8923
9.08,0.2252,0.1915,10.1987,-0.092,2.6906,-1.8816
9.1,0.4491,0.2089,10.2241,1.2922,2.2855,-1.7103
9.12,0.2806,0.1744,10.3035,-6.226,2.519,-2.1615
9.14,0.3482,0.0806,10.194,-9.1815,-1.4462,-1.3136
9.16,0.287,0.0288,10.252,-9.4287,-0.125,-0.4596
9.18,0.2736,0.0536,10.1248,-3.9865,-3.5417,0.0307
9.2,0.2566,0.1085,10.0249,-9.6101,-3.1954,-1.0394
9.22,0.258,0.0834,9.9556,-7.9887,-4.5791,1.0703
9.24,-0.0689,0.0888,9.9912,-5.3853,-4.8064,2.6338
9.26,0.0148,-0.0861,9.8365,-6.8878,-3.3582,3.2084
9.28,-0.1777,0.0156,9.9169,-8.0771,-5.5374,2.8651
9.3,-0.1157,-0.1069,10.1557,-6.4451,-3.7805,1.6586
9.32,-0.2608,-0.1124,10.1212,-4.2937,-5.3106,1.7144
9.34,-0.3509,-0.1739,10.0855,-0.5871,-3.6833,2.6418
9.36,-0.2747,-0.1759,10.2089,-1.7507,-2.0889,1.5968
9.38,-0.3119,-0.2761,10.1485,1.6686,1.0555,0.0351
9.4,-0.2753,-0.2493,10.2204,1.9172,0.3073,0.8302
9.42,-0.3252,-0.3335,10.1851,2.1586,2.9462,-2.296
9.44,-0.2431,-0.3004,10.0507,6.7144,2.4737,-3.39
9.46,-0.1674,-0.2056,9.9964,6.4204,3.7463,-2.0697
9.48,-0.0255,-0.3542,9.8429,9.2089,5.0338,-3.0262
9.5,-0.018,-0.2513,9.8611,6.282,6.6428,-2.9658
9.52,0.0819,-0.3097,9.9611,9.9351,5.1415,-2.7743
9.54,0.0544,-0.2561,9.9562,7.7499,2.9889,-3.1095
9.56,0.155,-0.2842,10.0914,7.3928,3.5189,-1.8549
9.58,0.2725,-0.1166,10.146,8.3997,2.9272,1.0104
9.6,0.3105,-0.1595,10.2479,4.4587,3.0609,0.3433
9.62,0.1644,-0.1955,10.2609,3.1229,0.591,1.3987
9.64,0.268,-0.2207,10.3093,4.0013,-0.6751,2.8501
9.66,0.3156,-0.2479,10.1855,3.0576,-0.7599,1.3329
9.68,0.2352,-0.1063,10.1201,-2.118,-2.4891,3.8028
9.7,0.1571,-0.0899,10.0434,-3.7659,-3.6779,3.8931
9.72,0.2402,-0.1002,9.9754,-1.0261,-5.9377,2.8755
9.74,0.2367,-0.0255,9.7972,-1.0906,-3.7982,3.7107
9.76,-0.0832,-0.0859,9.8768,-7.6089,-7.5786,2.7302
9.78,-0.1401,0.0463,9.8598,-5.5803,-6.4761,1.4105
9.8,-0.291,0.0731,10.0354,-8.246,-4.8172,-0.8141
9.82,-0.2737,0.1949,10.0758,-7.6764,-2.319,-1.2076
9.84,-0.1753,0.1825,10.1726,-7.1113,-1.1771,-3.6458
9.86,-0.5096,0.0946,10.2121,-9.0965,-1.7515,-4.4089
9.88,-0.464,0.1483,10.1818,-9.3869,-2.4555,-4.0094
9.9,-0.2788,0.2755,10.1227,-9.3219,1.4584,-3.642
9.92,-0.4688,0.202,10.1531,-6.1174,4.4305,-3.1732
9.94,-0.1838,0.1333,10.1429,-8.742,2.9526,-2.3271
9.96,-0.1627,0.1544,9.9724,-6.021,4.2304,-1.4274
9.98,-0.2501,0.2981,9.9736,-4.8101,3.365,-0.8511
10.0,-0.1636,0.2394,9.8499,-1.1397,5.1435,-0.982
10.02,0.0066,0.2481,9.9777,2.5462,5.9504,1.4635
10.04,0.2657,0.2344,9.9947,2.7043,5.702,1.5097
10.06,0.2144,0.2833,10.0541,7.9986,3.8055,2.8307
10.08,0.2598,0.2301,10.2517,6.1588,-0.3067,3.0313
10.1,0.2051,0.2131,10.1912,5.9616,2.3143,1.7398
10.12,0.4046,0.3132,10.2956,9.6589,0.6338,3.3144
10.14,0.4498,0.1771,10.2605,6.7506,-0.7024,3.0743
10.16,0.3757,0.1425,10.1461,6.8062,-4.2094,4.1053
10.18,0.2472,0.1502,10.1347,8.8478,-1.3184,1.0803
10.2,0.3319,0.1157,10.0495,7.9617,-4.8615,0.956
10.22,0.1581,-0.0181,9.9871,5.1028,-7.4194,-0.9775
10.24,0.1705,0.1261,9.9376,6.4959,-1.8003,-3.2142
10.26,-0.1846,0.0114,9.7743,4.7374,-3.9953,-1.2372
10.28,-0.0786,-0.0232,9.8997,1.1543,-4.9378,-3.0831
10.3,-0.1959,-0.0434,10.0387,3.6556,-3.574,-3.4924
10.32,-0.2726,-0.1388,10.1408,0.5954,-4.1697,-4.7162
10.34,-0.3441,-0.0966,10.1446,0.6895,-3.2881,-4.2436
10.36,-0.3197,-0.1984,10.2447,-5.3764,-2.8579,-2.4141
10.38,-0.4414,-0.13,10.2093,-3.7923,-2.2057,-2.7893
10.4,-0.3458,-0.1027,10.2293,-8.1359,2.063,-1.2005
10.42,-0.2771,-0.1916,10.0709,-3.5362,1.4268,0.4797
10.44,-0.2605,-0.198,10.0767,-5.7352,4.8357,2.2732
10.46,-0.2408,-0.2727,9.9221,-5.2077,4.5293,1.4043
10.48,-0.0334,-0.2192,9.9372,-8.2338,5.2742,3.0835
10.5,-0.1015,-0.1431,9.8547,-7.1399,6.0412,5.0277
10.52,-0.0977,-0.2805,9.9201,-4.6757,4.0128,2.8008
10.54,0.1499,-0.2054,9.9472,-6.7433,3.0037,2.3915
10.56,0.3103,-0.1688,10.0357,-4.218,5.7558,1.8149
10.58,0.3663,-0.3131,10.1628,-5.0231,1.9345,1.1493
10.6,0.3797,-0.2482,10.2742,-2.8003,1.8688,1.1085
10.62,0.2507,-0.2321,10.1972,0.8117,0.8905,-0.1829
10.64,0.2534,-0.1894,10.2548,0.1338,-0.4525,2.4584
10.66,0.4177,-0.1897,10.2606,5.8602,-1.1318,-2.0294
10.68,0.2026,-0.1705,10.0678,1.5249,-2.9968,-2.6158
10.7,0.1628,0.0204,10.1282,6.0309,-3.7475,-2.1776
10.72,0.1052,0.0145,9.9287,6.0855,-3.3169,-3.5149
10.74,0.1161,-0.0266,9.8551,4.6516,-8.3585,-4.7183
10.76,-0.0063,0.0647,9.7742,5.1903,-4.9223,-2.1611
10.78,-0.1949,0.0375,9.9556,5.6387,-4.4259,-3.528
10.8,-0.2575,0.1157,10.0837,10.6359,-3.1064,-3.1108
10.82,-0.1869,0.0726,10.1211,8.625,-4.3733,-2.4128
10.84,-0.2696,0.0364,10.1728,6.3875,-4.089,0.1202
10.86,-0.3924,0.1269,10.2376,10.1366,-0.8634,1.0988
10.88,-0.407,0.1361,10.2653,6.8339,-1.4615,1.807
10.9,-0.4246,0.3482,10.167,3.497,-1.684,2.1636
10.92,-0.4218,0.2112,10.1289,2.4033,2.7777,2.9904
10.94,-0.2446,0.1748,10.0818,0.0524,4.2211,3.5701
10.96,-0.2241,0.194,10.0422,-0.0778,2.3757,5.3276
10.98,-0.035,0.3869,9.9507,-0.2369,3.7087,3.3063
11.0,-0.0497,0.3194,9.8377,-4.4178,5.4736,0.9379
11.02,0.2192,0.3656,9.8799,-7.0748,5.2999,3.2669
11.04,0.2461,0.203,10.0039,-8.5419,5.3676,0.0834
11.06,0.2145,0.3048,10.0098,-8.035,4.0659,-0.4372
11.08,0.1711,0.1456,10.175,-8.8614,1.6503,-1.6611
11.1,0.4243,0.2209,10.2261,-8.661,2.9681,-2.5704
11.12,0.2447,0.1773,10.1681,-7.7481,3.3476,-4.3542
11.14,0.4977,0.1736,10.2087,-5.0154,-1.6088,-6.1075
11.16,0.2818,0.0333,10.1974,-8.0873,0.138,-2.9379
11.18,0.3867,0.0938,10.141,-6.0005,-3.556,-2.2726
11.2,0.2209,0.0553,10.0658,-4.6339,-3.0956,-2.3809
11.22,0.2034,0.0204,9.89,-1.9144,-5.8545,-1.8199
11.24,0.1216,0.0192,9.8638,-0.7917,-7.3499,-1.6188
11.26,-0.0788,-0.0457,9.7643,2.0569,-4.7842,-0.7063
11.28,-0.1217,-0.0227,9.9066,0.1602,-6.5912,1.6296
11.3,-0.1956,-0.0149,10.128,2.5082,-4.6765,0.8747
11.32,-0.3095,-0.0735,10.0594,3.9621,-3.1184,3.0185
11.34,-0.341,-0.2039,10.2181,5.0049,0.6147,0.5856
11.36,-0.4167,-0.0465,10.1693,5.5448,0.0667,1.9822
11.38,-0.4207,-0.1301,10.1903,10.059,0.21,3.1203
11.4,-0.2838,-0.1931,10.1605,12.4399,-1.5517,2.2477
11.42,-0.3833,-0.2665,10.1637,7.2771,2.1038,1.6997
11.44,-0.2847,-0.2035,10.0245,7.8045,4.5404,-0.2359
11.46,-0.2141,-0.2509,10.0974,0.2135,2.6447,-0.1597
11.48,0.0053,-0.1569,9.924,8.2728,4.9936,-1.7085
11.5,-0.0993,-0.2604,9.8694,2.0498,4.8004,0.6297
11.52,0.1525,-0.2147,9.8065,4.7823,5.9106,-3.736
11.54,0.0272,-0.2736,9.9467,-0.5945,4.9212,-2.0187
11.56,0.2292,-0.274,10.1115,0.4866,4.4767,-2.3478
11.58,0.2971,-0.2253,10.1171,-2.0702,3.4096,-2.7216
11.6,0.4544,-0.3156,10.2796,-5.5073,2.0938,-2.2516
11.62,0.2911,-0.1844,10.1353,-4.2529,1.1934,-1.447
11.64,0.2886,-0.1613,10.1809,-4.7812,-2.5368,-1.3901
11.66,0.1833,-0.2748,10.2058,-8.6762,-1.1799,-0.3189
11.68,0.2699,-0.2087,10.1783,-5.8805,-4.5447,-0.7134
11.7,0.2648,-0.0752,10.0134,-8.8895,-3.9055,2.1011
11.72,0.2527,-0.0439,10.0413,-7.5493,-4.3303,1.2498
11.74,0.2719,-0.0534,9.9566,-8.1977,-4.0228,3.5953
11.76,0.0362,-0.0209,9.8294,-10.9864,-6.6787,1.1111
11.78,-0.0859,0.0757,9.869,-4.5654,-5.145,2.3025
11.8,-0.2497,0.0998,10.0472,-3.7661,-4.0846,4.3372
11.82,-0.1521,0.1103,10.1004,-5.1675,-3.6622,2.2733
11.84,-0.1533,0.1104,10.2228,-4.4658,0.1686,1.1262
11.86,-0.4435,0.1641,10.2239,-5.2242,-0.753,1.7009
11.88,-0.3408,0.0968,10.2328,0.8242,1.2543,-0.2839
11.9,-0.2387,0.2492,10.273,0.144,1.7832,-1.8025
11.92,-0.1526,0.224,10.104,-0.2624,2.532,-1.4542
11.94,-0.2049,0.1578,10.0671,3.295,3.3567,-1.8373
11.96,-0.1583,0.2319,10.0922,3.9282,3.0319,-2.9784
11.98,-0.2278,0.3396,9.8646,9.6073,1.6742,-2.4897
12.0,-0.039,0.2224,9.8802,7.199,5.6416,-0.7338
12.02,0.0855,0.2205,9.88,6.3279,5.3056,-3.0728
12.04,0.1971,0.3826,10.0437,11.8361,1.6492,-1.5655
12.06,0.2052,0.2949,10.0253,9.4385,1.8867,-0.5201
12.08,0.4828,0.2313,10.0722,9.3132,2.8708,-1.1467
12.1,0.4166,0.1315,10.2605,3.1953,0.8143,-0.2243
12.12,0.2948,0.105,10.2081,7.0224,-1.0582,0.5382
12.14,0.3144,0.0687,10.208,5.983,-3.0309,1.7514
12.16,0.3728,0.084,10.1285,3.0011,1.1229,2.2626
12.18,0.3513,0.1391,10.1708,1.0361,-3.7297,3.2737
12.2,0.1736,0.1133,10.037,1.982,-2.0222,3.9784
12.22,0.051,-0.0165,10.0177,-2.629,-4.7798,2.3273
12.24,-0.0096,0.0002,9.8529,-6.3291,-4.0904,2.9387
12.26,0.0902,-0.0389,9.8292,-7.6465,-4.8813,1.9774
12.28,-0.0963,-0.1097,9.9586,-4.2717,-2.5193,0.5725
12.3,-0.1652,-0.1029,10.0655,-8.329,-3.5057,-2.655
12.32,-0.2596,-0.1136,10.1157,-8.0774,-4.849,-0.8705
12.34,-0.2096,-0.1704,10.0971,-8.1818,-2.2318,-0.1088
12.36,-0.4099,-0.2162,10.1809,-4.7801,-1.6203,-4.819
12.38,-0.3925,-0.2548,10.181,-8.2143,-0.195,-1.886
12.4,-0.3539,-0.1675,10.1889,-6.448,2.1455,-3.925
12.42,-0.2846,-0.2559,10.0898,-9.4363,-0.3688,-3.7511
12.44,-0.2225,-0.2357,10.1042,-2.4398,3.4128,-1.3435
12.46,-0.1304,-0.2753,9.9193,-4.2409,1.5508,-1.2085
12.48,-0.0644,-0.1919,9.9188,-1.6874,4.304,0.4111
12.5,-0.0651,-0.2311,9.8651,1.9859,5.2775,-1.0714
12.52,0.0397,-0.2161,9.8947,4.8746,5.4741,0.2193
12.54,0.1305,-0.22,9.9656,4.7563,4.1586,0.0722
12.56,0.3188,-0.2939,10.0739,4.1488,5.4261,1.883
12.58,0.4021,-0.2913,10.1575,7.5778,3.4865,1.9029
12.6,0.2936,-0.1822,10.1934,4.8475,-0.1122,2.8749
12.62,0.3887,-0.0963,10.2256,7.218,-3.1931,2.4774
12.64,0.4678,-0.0573,10.1828,11.2423,-0.6049,0.3976
12.66,0.3603,-0.065,10.1425,8.6194,0.3398,0.1906
12.68,0.4092,-0.2039,10.1999,7.6895,-3.9335,2.0135
12.7,0.2348,-0.1681,10.1029,8.8088,-3.3611,0.2705
12.72,0.0269,-0.0873,10.0579,8.0034,-3.3222,0.5599
12.74,0.1355,0.0022,9.9087,6.3198,-5.8853,-1.5026
12.76,0.0608,0.0601,9.9323,1.3624,-4.641,-1.6109
12.78,-0.0199,-0.0598,9.915,1.2207,-4.1977,-2.2676
12.8,-0.1638,0.0358,10.0439,-0.0012,-6.0066,-3.9244
12.82,-0.2253,0.1491,9.9721,-1.4284,-4.3222,-3.4822
12.84,-0.2239,0.1179,10.1533,-2.2771,-1.3043,-1.9236
12.86,-0.4153,0.1632,10.1205,-5.9292,-1.4852,-3.5261
12.88,-0.302,0.2059,10.2292,-2.593,0.432,0.6273
12.9,-0.3416,0.1959,10.1809,-3.1182,0.6084,0.252
12.92,-0.2875,0.1731,10.1564,-8.3162,2.7949,-0.2125
12.94,-0.2725,0.1855,10.1284,-4.9241,2.5674,1.8788
12.96,-0.1431,0.2077,10.0775,-7.332,2.851,0.6101
12.98,-0.21,0.1122,9.8764,-6.6535,5.6424,1.1152
13.0,-0.0286,0.23,9.8288,-13.0516,3.4528,1.8082
13.02,0.1768,0.2304,9.8796,-6.4979,3.6941,3.7615
13.04,0.1537,0.2992,9.973,-6.6689,3.3155,4.3424
13.06,0.1327,0.196,10.0766,-4.8368,1.7937,1.387
13.08,0.2843,0.1797,10.0467,-6.9894,2.5441,0.8695
13.1,0.298,0.1935,10.1555,-0.2249,0.4504,1.9975
13.12,0.3987,0.1633,10.3187,-1.2756,2.8764,1.2548
13.14,0.3738,0.2418,10.218,-0.7321,-0.6352,0.0005
13.16,0.3249,0.1406,10.1949,0.9967,-1.1804,-0.8932
13.18,0.3551,0.117,10.1594,3.817,-2.9098,-1.6425
13.2,0.1037,0.1541,10.0371,4.9228,-6.6608,-3.4656
13.22,0.1514,0.0676,9.9818,4.0551,-6.0074,-4.1514
13.24,0.0104,-0.0598,9.7636,5.0447,-5.942,-3.4937
13.26,0.0315,-0.0161,9.8053,5.8091,-4.1464,-2.7925
13.28,-0.1661,0.0125,9.9195,8.9517,-1.3549,-1.0162
13.3,-0.2838,-0.121,10.004,5.6896,-7.005,-0.4008
13.32,-0.3091,-0.2185,10.091,9.5406,-4.6872,-2.9917
13.34,-0.3037,-0.1977,10.189,7.3358,-3.7895,1.1825
13.36,-0.4214,-0.1191,10.2354,2.8652,-0.5147,0.2114
13.38,-0.4939,-0.1964,10.1794,2.9174,0.4123,1.3736
13.4,-0.4302,-0.139,10.3089,-2.8919,1.7784,1.6595
13.42,-0.3166,-0.1284,10.0972,2.0753,5.1952,2.6048
13.44,-0.2921,-0.2122,10.1485,1.1037,1.8094,2.9043
13.46,-0.0107,-0.251,9.9934,-1.6186,2.2824,4.1318
13.48,-0.2798,-0.3257,9.9161,-3.3474,4.3959,2.5169
13.5,0.0383,-0.1136,9.7344,-4.2208,3.9506,1.5907
13.52,0.2252,-0.2739,9.8545,-7.1765,4.5231,1.5694
13.54,0.0231,-0.198,9.9537,-7.9834,4.1836,0.4673
13.56,0.3786,-0.2457,10.0681,-7.6524,3.169,-0.8611
13.58,0.291,-0.2727,10.0912,-9.8994,3.5984,-1.3449
13.6,0.4898,-0.1072,10.1458,-9.4974,0.4313,-2.4975
13.62,0.327,-0.2059,10.2707,-9.0273,-0.0493,-5.0764
13.64,0.2573,-0.0202,10.23,-6.9299,-0.6984,-2.4394
13.66,0.204,-0.0166,10.1374,-6.5983,-1.6909,-3.7523
13.68,0.2752,-0.1976,10.0826,-5.5225,-3.5335,-1.5941
13.7,0.1831,-0.0535,10.0467,-6.9981,-3.9761,-1.9524
13.72,0.0956,-0.0074,9.9895,-5.2052,-0.467,-1.5692
13.74,0.0185,-0.0393,9.8539,-3.7289,-6.1242,-1.9645
13.76,-0.1405,0.0259,9.7696,1.5003,-3.8508,-0.5707
13.78,-0.1429,0.054,9.9539,-1.4778,-5.8848,3.9929
13.8,-0.2605,0.1969,10.0046,0.5773,-4.6223,2.8249
13.82,-0.3311,-0.0365,10.1564,2.6992,-5.3378,1.7399
13.84,-0.3182,0.0733,10.0777,6.4753,-2.1748,3.7018
13.86,-0.2768,0.2243,10.2415,7.0445,-1.55,2.709
13.88,-0.0561,0.2243,10.2716,2.3788,0.3425,3.2806
13.9,-0.5412,0.1468,10.1866,9.2843,2.4193,0.8824
13.92,-0.3048,0.1823,10.1004,6.6151,1.156,1.4104
13.94,-0.2217,0.2034,10.1295,8.7229,2.9301,-0.3742
13.96,-0.1187,0.3363,10.0348,7.2794,5.005,0.7689
13.98,0.0246,0.2896,9.8909,4.8067,5.0107,-2.3639
