time_s,Ax,Ay,Az,Gx,Gy,Gz
0.0,-0.0065,0.2918,9.8383,0.3091,6.6026,-0.6731
0.02,0.1545,0.2577,9.8876,3.143,2.7538,1.1919
0.04,0.2065,0.3064,10.0006,1.6467,5.3391,1.9343
0.06,0.2364,0.2491,9.9758,1.1741,7.3003,2.1175
0.08,0.1887,0.2654,10.1043,5.4048,4.2956,3.1045
0.1,0.2557,0.1899,10.0688,1.8842,3.221,2.6437
0.12,0.347,0.0863,10.1466,9.6122,2.4647,4.7419
0.14,0.3379,0.1922,10.2121,7.8108,-0.311,0.7736
0.16,0.3928,0.203,10.2668,6.6043,-0.378,2.345
0.18,0.3098,0.1318,10.1447,8.3751,-1.8757,2.7624
0.2,0.3393,0.0827,10.2396,10.1565,-1.9781,2.3698
0.22,0.3528,0.0915,10.2252,8.3078,-1.835,1.9639
0.24,0.2566,0.0758,10.116,1.3674,-4.1858,-0.3088
0.26,0.1974,0.0719,10.0297,10.5355,-3.086,-0.2556
0.28,0.1989,0.0081,10.044,6.5211,-2.9969,-0.2475
0.3,-0.0371,0.0926,9.8939,6.3034,-4.9597,-1.3136
0.32,-0.1532,0.1268,9.7295,4.4536,-7.1818,-2.6627
0.34,-0.0851,-0.0926,9.8678,3.3413,-5.6179,-2.084
0.36,-0.1264,-0.069,10.0374,0.6467,-4.9198,-3.2087
0.38,-0.1786,-0.1171,10.0206,3.7077,-1.2521,-2.8456
0.4,-0.367,-0.0813,10.0485,-2.7893,-5.0038,-4.7596
0.42,-0.2194,-0.1048,10.0837,-3.4863,-2.2252,-2.9257
0.44,-0.2977,-0.1206,10.1899,-0.033,-2.971,-3.0993
0.46,-0.2978,-0.1496,10.2417,-4.8562,0.5716,-1.7256
0.48,-0.305,-0.1935,10.2401,-4.3415,-0.4721,-3.1763
0.5,-0.4853,-0.1249,10.1078,-6.1286,-2.9607,-1.4181
0.52,-0.3546,-0.2204,10.2401,-6.6997,2.9019,-1.2932
0.54,-0.1859,-0.1565,10.1921,-6.9521,4.0458,-0.338
0.56,-0.1424,-0.3283,10.1038,-10.7918,3.4459,1.7146
0.58,-0.2894,-0.2014,9.9902,-5.4115,5.1231,1.0381
0.6,-0.1357,-0.1587,10.0196,-8.2406,2.9094,-0.0334
0.62,0.0142,-0.273,9.9099,-9.0612,4.291,1.9222
0.64,0.0256,-0.3119,9.831,-9.1895,6.9208,0.7034
0.66,0.0856,-0.2043,9.903,-7.0595,5.3211,1.1282
0.68,0.0227,-0.171,9.9861,-6.7826,3.332,1.7754
0.7,0.0979,-0.2263,10.027,-4.1713,2.6171,2.9305
0.72,0.2859,-0.182,10.065,-5.0584,2.3095,1.6234
0.74,0.4351,-0.2226,10.059,-5.0051,1.1659,2.8205
0.76,0.2609,-0.1866,10.223,-1.252,3.4678,-0.7113
0.78,0.2615,-0.2066,10.2372,-6.2681,4.1164,0.6477
0.8,0.4001,-0.2043,10.2946,-2.2181,0.1577,0.6383
0.82,0.3793,-0.1509,10.1602,-3.1232,-0.2667,0.2085
0.84,0.2254,-0.2016,10.1935,5.5805,0.0492,-2.9772
0.86,0.2846,-0.1538,10.1248,1.1388,-1.5026,-0.93
0.88,0.2047,-0.076,10.1877,5.0295,-2.0385,-4.7563
0.9,0.2443,-0.0922,9.9965,5.1012,-2.0107,-3.4028
0.92,-0.0122,-0.0531,9.9765,6.7668,-5.1811,-3.3346
0.94,-0.038,-0.1115,9.8657,7.8305,-6.5322,-3.053
0.96,-0.0075,-0.0739,9.7996,9.1088,-2.8053,-3.3979
0.98,-0.1604,0.0052,9.8219,8.923,-5.452,-1.7744
1.0,-0.0326,0.0122,10.0012,9.6737,-3.1582,-1.9957
1.02,-0.1497,0.0462,10.0462,4.1118,-3.5498,0.0207
1.04,-0.2761,0.1434,10.1441,8.7699,-5.3776,0.0786
1.06,-0.3512,0.0457,10.1297,8.8578,-2.1535,0.7441
1.08,-0.3844,0.0845,10.1341,8.0158,-6.3772,1.4056
1.1,-0.3492,0.1943,10.0759,4.2988,-0.8661,0.3889
1.12,-0.409,0.1847,10.2117,7.4581,0.1093,3.723
1.14,-0.3614,0.2467,10.1666,6.2223,-0.9506,0.9002
1.16,-0.2646,0.382,10.1669,4.4217,0.5127,4.1115
1.18,-0.3579,0.2923,10.1607,3.171,3.4678,2.2683
1.2,-0.2382,0.191,10.0801,1.4985,3.8233,4.3832
1.22,-0.1185,0.2665,9.9779,0.8831,5.2905,1.951
1.24,-0.1873,0.194,10.0588,-0.4878,4.2755,1.9892
1.26,-0.0858,0.2839,9.9375,0.2377,7.5764,2.1721
1.28,0.0341,0.3469,9.7645,-3.2657,3.2061,2.6086
1.3,-0.0096,0.267,9.812,-6.5468,4.0809,1.2556
1.32,0.103,0.2139,9.9717,-8.733,3.4936,0.7159
1.34,0.2943,0.2049,10.1312,-5.5154,6.5455,-1.2092
1.36,0.0833,0.3267,10.0736,-10.9123,0.2445,-2.3907
1.38,0.3424,0.2582,10.1167,-7.4209,3.7098,-2.6842
1.4,0.3746,0.0353,10.2459,-8.8321,2.1658,0.0924
1.42,0.4255,0.1818,10.1701,-6.3578,1.6235,-2.5831
1.44,0.3336,0.0986,10.2222,-8.535,1.6345,-1.5453
1.46,0.1753,0.0858,10.1988,-6.7366,-1.6167,-1.9623
1.48,0.2645,0.094,10.2356,-10.3372,-1.4664,-3.5738
1.5,0.2333,0.1495,10.1908,-3.4247,0.3996,-3.7977
1.52,0.214,0.1357,10.1178,-6.2425,-1.7035,-2.0996
1.54,0.3507,-0.0078,10.01,-0.8019,-2.7049,-2.1046
1.56,0.0724,0.109,9.9672,-3.1074,-5.729,-1.6494
1.58,0.0713,0.0551,9.9116,-0.7943,-4.9371,-1.9956
1.6,0.196,0.0826,9.9017,0.0489,-4.7042,-0.5133
1.62,-0.075,-0.0452,9.9144,-0.7827,-5.3153,-0.431
1.64,-0.051,-0.104,9.9403,3.2118,-5.7407,1.1118
1.66,-0.1223,-0.0217,10.0136,1.3951,-4.4527,2.4349
1.68,-0.1248,-0.1606,10.1123,7.2909,-3.1733,2.9119
1.7,-0.1704,-0.102,10.1898,5.4796,-2.3003,5.237
1.72,-0.4254,-0.1489,10.2043,4.6184,-4.6159,3.6935
1.74,-0.4282,-0.1491,10.1988,7.3478,-1.9175,3.6501
1.76,-0.3397,-0.0151,10.2402,4.7485,-0.9998,2.8224
1.78,-0.2772,-0.1964,10.3132,6.9534,-0.5985,3.2525
1.8,-0.2003,-0.2999,10.313,10.3912,2.2169,2.6816
1.82,-0.4342,-0.1305,10.0918,8.3019,3.0174,1.4693
1.84,-0.2135,-0.1572,10.1461,7.8674,4.8406,0.9849
1.86,-0.1934,-0.1748,10.1789,8.8728,6.3269,-1.5839
1.88,-0.1605,-0.1466,9.976,7.1012,5.5565,-0.0389
1.9,-0.153,-0.3066,9.8633,6.3605,5.3426,-0.9133
1.92,0.0395,-0.2363,9.7913,2.1713,4.6961,-2.1139
1.94,0.0505,-0.2077,9.9353,-0.1362,5.6494,-0.685
1.96,0.1261,-0.3808,9.9538,3.1047,4.3536,-1.3453
1.98,0.1104,-0.2306,10.0067,8.4241,2.3762,-3.8897
2.0,0.3842,-0.2989,10.052,-1.2071,6.2049,-4.643
2.02,0.336,-0.1501,10.0676,2.3036,2.6073,-3.004
2.04,0.1643,-0.1714,10.1957,-5.5032,4.8742,-1.6832
2.06,0.2707,-0.2412,10.1571,-5.3735,4.444,-3.9806
2.08,0.3185,-0.2286,10.1676,-7.5949,0.1831,-2.8862
2.1,0.3779,-0.143,10.297,-1.5052,1.7908,-0.2246
2.12,0.3675,-0.1246,10.1316,-7.5436,-1.8543,-0.8227
2.14,0.4102,-0.1638,10.1725,-6.7408,-3.2538,0.1563
2.16,0.1131,-0.0704,10.0668,-6.0172,-5.2606,0.8872
2.18,0.208,-0.0589,9.9864,-8.4232,-3.5242,0.9333
2.2,0.2243,-0.1095,9.942,-9.5619,-5.4872,1.9461
2.22,0.2104,0.0129,9.9628,-7.2436,-2.9407,2.3231
2.24,0.1484,-0.0415,9.9189,-8.5768,-8.4615,4.9165
2.26,-0.0979,0.0598,9.9077,-7.7697,-2.7614,2.7507
2.28,-0.131,0.0439,9.957,-5.439,-2.8659,2.5969
2.3,-0.1214,0.0536,10.1869,-6.8944,-3.798,3.1449
2.32,-0.2243,0.1329,10.0839,-2.3219,-1.103,2.8366
2.34,-0.32,0.1176,10.1746,-4.0411,-1.9785,2.1748
2.36,-0.3105,0.0869,10.1389,-0.247,-3.2945,-0.0271
2.38,-0.3383,0.2125,10.2041,-3.5273,-2.3371,0.0361
2.4,-0.3687,0.0681,10.2066,-4.0847,-0.6281,0.0941
2.42,-0.402,0.1914,10.2048,3.9775,-0.6696,0.2223
2.44,-0.4032,0.1671,10.1238,-0.1183,4.0969,-0.6626
2.46,-0.3238,0.2407,10.0837,3.9201,0.5377,-0.5295
2.48,-0.352,0.1222,10.1312,4.8059,2.0005,-1.4879
2.5,-0.31,0.2674,10.1142,5.7844,3.9041,-2.1339
2.52,-0.0264,0.3158,9.9616,3.7063,7.0492,-3.9988
2.54,-0.0185,0.2548,9.9429,8.6731,3.8701,-3.0233
2.56,-0.0555,0.2285,9.8,4.6404,6.8917,-2.583
2.58,0.0276,0.2886,9.9578,7.3406,3.2464,-1.7848
2.6,0.1451,0.2296,9.9481,8.4205,6.7657,-1.8368
2.62,0.165,0.1968,10.0122,9.6785,4.4454,-2.7397
2.64,0.2447,0.1822,10.0401,8.6387,2.5315,-1.4293
2.66,0.3661,0.3163,10.1304,6.5297,3.3031,0.6534
2.68,0.2786,0.2374,10.1214,5.7165,3.6142,0.1311
2.7,0.2737,0.2441,10.2578,5.1281,1.3938,0.3216
2.72,0.2699,0.0946,10.1735,4.9641,1.2394,1.7128
2.74,0.3849,0.1812,10.1999,7.2449,-0.1072,2.408
2.76,0.3657,0.2757,10.1948,2.1149,-4.4444,2.3893
2.78,0.2301,0.2,10.1697,5.5681,0.3028,3.521
2.8,0.267,0.1968,10.0869,2.8401,-3.1943,4.0648
2.82,0.2047,0.0914,10.0663,-2.1298,-1.3486,2.8059
2.84,0.1348,0.1339,9.9124,-1.4183,-6.6646,3.1748
2.86,0.1188,0.1073,9.9114,-2.2415,-3.0027,4.1781
2.88,0.083,-0.033,9.9141,-4.1166,-5.1761,2.9452
2.9,-0.0101,-0.0109,9.9266,-5.6143,-3.8833,1.4021
2.92,-0.2211,-0.0828,9.9218,-3.8647,-4.6663,-0.4316
2.94,-0.2497,-0.1161,10.0617,-4.307,-4.3524,-0.2349
2.96,-0.2292,-0.0559,10.1571,-5.7368,-5.9556,0.1818
2.98,-0.2882,-0.111,10.0888,-9.6675,-2.8001,-3.3669
3.0,-0.2141,-0.1515,10.1777,-6.7714,-4.5569,-4.6762
3.02,-0.3889,-0.125,10.143,-6.381,-0.1457,-2.8092
3.04,-0.3914,-0.1661,10.2227,-10.4446,1.5262,-3.2684
3.06,-0.3985,-0.22,10.2168,-4.0699,0.2115,-1.7611
3.08,-0.2502,-0.1406,10.2617,-8.4032,0.6581,-4.7759
3.1,-0.328,-0.1707,10.2514,-2.2981,3.8152,-2.929
3.12,-0.091,-0.2583,10.1144,-3.6106,3.8705,-3.1787
3.14,-0.2282,-0.2544,10.0646,-3.8436,6.0949,-3.0863
3.16,-0.1648,-0.2508,10.039,-2.2265,4.7675,-2.5032
3.18,-0.1144,-0.203,9.9208,-1.9096,6.0164,-0.5874
3.2,0.0062,-0.2435,9.873,1.06,6.2623,1.7293
3.22,0.0831,-0.1568,9.874,-2.2627,4.3621,0.5669
3.24,0.0336,-0.2504,9.8904,7.2938,2.4959,1.6572
3.26,0.1377,-0.171,10.0329,4.2671,3.5413,2.5357
3.28,0.1854,-0.3124,10.0416,7.2935,2.4257,2.3431
3.3,0.2697,-0.1195,10.0957,1.9122,4.0227,1.2902
3.32,0.3857,-0.167,10.1663,6.3905,1.5124,1.1432
3.34,0.3267,-0.2949,10.1669,8.6649,2.2104,4.6476
3.36,0.3694,-0.2319,10.1827,4.958,1.857,2.118
3.38,0.3372,-0.1497,10.215,7.9372,-1.6692,2.0245
3.4,0.2819,-0.0254,10.1214,5.3123,-1.3777,1.4515
3.42,0.3139,-0.2101,10.2102,7.4798,-6.2094,2.3931
3.44,0.3886,-0.1089,10.214,11.8136,-3.2098,0.5216
3.46,0.2905,-0.1157,10.0415,9.4837,-7.1774,1.5974
3.48,0.192,-0.073,9.9752,7.6341,-0.7895,-1.2681
3.5,0.1425,-0.0363,9.8798,5.3867,-6.8589,-0.9457
3.52,0.0314,-0.007,9.9159,4.2102,-1.9919,-2.2449
3.54,0.0141,-0.0781,9.8182,3.226,-4.5908,-1.2147
3.56,-0.0518,-0.0273,9.9348,5.747,-6.9859,-2.7585
3.58,-0.1723,0.0677,9.9589,3.4972,-3.8861,-1.6424
3.6,-0.1689,0.0876,10.1484,0.0469,-4.967,-4.7114
3.62,-0.1699,-0.0082,10.1435,-4.5942,-4.1585,-2.8606
3.64,-0.4075,0.1625,10.1446,-2.016,-3.2274,-3.7849
3.66,-0.2364,0.135,10.2465,-2.1005,-1.0723,-2.0401
3.68,-0.2915,0.1415,10.1005,-6.8314,1.7875,-3.5302
3.7,-0.3584,0.0998,10.2921,-2.9754,-1.531,-1.781
3.72,-0.3018,0.1755,10.1271,-6.5366,3.2254,-0.139
3.74,-0.2951,0.1693,10.2647,-6.2312,1.5403,-0.6868
3.76,-0.3145,0.2586,10.1867,-9.4224,4.029,2.2195
3.78,-0.1915,0.255,9.9856,-10.3654,2.011,-1.041
3.8,-0.1889,0.2452,10.0308,-9.857,3.7441,1.7591
3.82,-0.0722,0.1958,9.9557,-7.2671,5.8376,2.1742
3.84,-0.0975,0.2547,9.9325,-7.6514,4.22,2.3169
3.86,-0.0688,0.266,9.8591,-6.9626,3.8246,2.686
3.88,0.093,0.3931,10.024,-2.6858,6.8222,1.7905
3.9,0.0612,0.2732,9.9832,-7.768,3.0973,3.7773
3.92,0.0964,0.1887,10.06,-4.7867,4.4948,2.7568
3.94,0.2538,0.307,10.1883,-7.3508,0.5804,2.2055
3.96,0.2755,0.1893,10.0957,-0.0881,3.2633,0.5311
3.98,0.3224,0.1585,10.2164,-1.709,1.6643,2.5867
4.0,0.2985,0.157,10.279,1.189,1.8072,-0.9599
4.02,0.4628,0.1814,10.2156,2.5387,0.2685,-0.4866
4.04,0.3658,0.1622,10.164,4.9186,0.3721,0.6846
4.06,0.4286,0.2149,10.1318,3.1026,-3.6698,-1.947
4.08,0.2895,0.0579,10.0285,4.1959,-5.0158,-0.7167
4.1,0.1796,0.1285,10.071,5.5235,-4.7985,-3.0532
4.12,0.1648,0.0746,9.998,7.0237,-3.1871,-2.1639
4.14,0.1005,0.0833,9.9622,4.6505,-4.8173,-2.9731
4.16,-0.0086,0.0647,9.9001,4.8429,-4.6567,-4.2429
4.18,-0.1028,-0.0532,9.781,9.8984,-3.9017,-2.6721
4.2,-0.015,-0.0491,9.9678,7.9431,-5.6223,-2.0826
4.22,-0.2181,-0.0735,9.898,9.7579,-3.6505,-2.518
4.24,-0.2105,-0.1325,10.0433,5.3639,-3.2699,-1.8379
4.26,-0.374,-0.1185,10.2086,5.3422,-6.4575,0.2595
4.28,-0.2777,-0.0233,9.9965,8.1586,-3.2923,0.5411
4.3,-0.3078,-0.1734,10.2195,7.9669,1.5056,1.3735
4.32,-0.4325,-0.1586,10.1679,5.9403,1.3266,0.6185
4.34,-0.3791,-0.1038,10.1974,5.797,-0.3772,3.7777
4.36,-0.3943,-0.1194,10.2087,2.6514,0.7008,2.0038
4.38,-0.2577,-0.3311,10.1086,3.4182,2.0788,1.6627
4.4,-0.292,-0.2227,10.1437,5.4976,4.2947,2.8378
4.42,-0.1616,-0.1512,10.113,-1.2548,4.8977,4.519
4.44,-0.2569,-0.3136,9.942,-3.7946,2.8677,2.4571
4.46,-0.002,-0.2849,9.9263,-0.7521,6.9864,2.5014
4.48,0.0035,-0.3029,9.89,-7.4723,6.0862,2.5278
4.5,-0.0319,-0.2099,9.85,-4.3959,5.5659,0.9234
4.52,-0.0074,-0.1612,9.9119,-5.9123,6.4061,2.8101
4.54,0.1226,-0.248,10.0422,-8.228,6.2521,-0.7566
4.56,0.1982,-0.219,9.997,-10.3965,4.1456,1.0552
4.58,0.2639,-0.2143,10.0616,-8.1847,4.242,-1.2415
4.6,0.308,-0.1849,10.0574,-9.1215,2.9399,-3.3214
4.62,0.4247,-0.1313,10.2447,-7.9638,0.5054,-2.9502
4.64,0.3204,-0.3197,10.198,-8.9105,0.9663,-4.0189
4.66,0.4435,-0.1856,10.1743,-5.5526,0.4238,-2.1594
4.68,0.4782,-0.1424,10.1075,-8.1768,-1.3909,-3.1711
4.7,0.3607,-0.1939,10.1315,-7.9824,-4.7594,-2.2542
4.72,0.1835,-0.1342,10.0845,-7.0184,-3.2755,-1.5724
4.74,0.2295,-0.1148,10.077,-3.4004,-3.9993,-1.2696
4.76,0.2429,-0.0946,10.057,-5.1536,-2.2553,-2.05
4.78,0.0038,-0.0659,9.942,-3.7089,-2.5479,-2.0179
4.8,0.0504,-0.0327,9.7736,1.3258,-3.5194,-1.7273
4.82,0.0528,0.0792,9.9037,-1.9893,-5.2125,0.0105
4.84,-0.222,-0.0236,9.869,2.133,-6.9101,0.3468
4.86,-0.1336,0.041,9.9616,0.2579,-5.3977,2.3628
4.88,-0.2663,0.1155,9.857,6.5535,-2.3125,2.8854
4.9,-0.1746,0.1266,10.0105,0.6648,-6.6426,3.7113
4.92,-0.3629,0.0599,10.1719,3.3673,-1.1347,4.3169
4.94,-0.3506,0.1408,10.2209,5.904,-3.583,2.5529
4.96,-0.4488,0.2446,10.2664,4.7804,0.7648,2.8314
4.98,-0.3815,0.0915,10.2402,10.0786,1.1433,2.2111
5.0,-0.2611,0.201,10.1804,7.9243,0.7545,0.7495
5.02,-0.3113,0.2445,10.1893,7.3933,4.719,0.5889
5.04,-0.2295,0.1482,10.0975,8.4058,1.5038,0.9096
5.06,-0.1775,0.1791,10.0734,7.6353,4.0839,0.5001
5.08,-0.1039,0.1958,9.9497,11.0692,6.1841,1.4088
5.1,0.0593,0.23,9.9503,6.8587,4.5318,-1.7295
5.12,-0.0204,0.1976,9.9439,4.3908,5.4445,-1.0935
5.14,0.0079,0.2868,9.8585,6.1533,3.6755,-2.3887
5.16,0.1794,0.3204,9.9494,2.9356,9.0415,-2.7627
5.18,0.2394,0.243,9.8956,1.364,2.1168,-2.7765
5.2,0.2409,0.2453,10.1068,-1.0165,2.673,-1.6074
5.22,0.2086,0.3531,10.0418,4.2294,3.9416,-1.61
5.24,0.3314,0.1467,10.1698,-1.5979,3.1235,-2.9439
5.26,0.3746,0.2447,10.2362,-0.6411,0.5012,-2.6482
5.28,0.3248,0.1712,10.2957,-3.1095,1.1021,-2.7413
5.3,0.3183,0.1991,10.1823,-7.2658,1.2869,-2.1423
5.32,0.3729,0.0288,10.2608,-7.6428,-1.4089,0.6462
5.34,0.475,0.1569,10.1696,-10.9864,-2.1181,-0.4141
5.36,0.3849,0.1637,10.2084,-8.3374,-1.3007,-0.0403
5.38,0.1432,0.0921,10.03,-8.0529,-2.4052,2.6696
5.4,0.1368,0.226,10.0805,-9.8436,-4.627,3.7821
5.42,0.1172,0.0701,9.976,-7.7233,-4.1409,-0.1637
5.44,0.0658,-0.0401,9.9448,-8.9441,-7.5798,2.4169
5.46,-0.0338,0.0269,9.7295,-5.6314,-5.7496,2.0902
5.48,-0.0589,-0.0122,9.875,-10.2255,-3.657,2.8202
5.5,-0.1112,-0.0869,9.934,-4.3608,-4.0486,3.8017
5.52,-0.257,-0.12,9.9867,-6.8622,-7.6622,2.8055
5.54,-0.205,-0.0585,10.118,-4.9593,-6.7169,3.0943
5.56,-0.3597,-0.0651,10.1812,-5.2305,-2.7921,3.1756
5.58,-0.3862,-0.1239,10.1988,-3.1909,-0.7195,2.8218
5.6,-0.2841,-0.2326,10.2346,-2.0236,-1.0549,0.5937
5.62,-0.2872,-0.2398,10.2188,2.858,0.7979,-1.1176
5.64,-0.5105,-0.1529,10.2726,-2.7997,0.8012,-0.1107
5.66,-0.3709,-0.1404,10.1625,4.4287,-0.4985,-1.6788
5.68,-0.2749,-0.3311,10.0245,5.2777,2.1477,-2.0223
5.7,-0.1726,-0.2326,10.1425,1.325,3.4044,-3.3094
5.72,-0.1597,-0.2239,10.0529,9.4108,3.5372,-5.4569
5.74,-0.2542,-0.2656,10.0374,6.6547,5.1809,-3.1217
5.76,-0.1205,-0.2389,9.8989,6.2666,6.36,-3.4136
5.78,0.1,-0.2479,9.7609,8.1774,4.4737,-2.2452
5.8,0.1013,-0.331,9.8545,7.8236,3.3435,-3.1287
5.82,0.1391,-0.2334,9.8965,7.442,4.1182,-2.8586
5.84,0.1796,-0.3025,10.0398,5.9332,6.2272,-1.9624
5.86,0.1893,-0.3771,10.1044,6.7685,4.8492,-2.8688
5.88,0.3237,-0.2313,10.1024,7.9203,1.7333,1.5999
5.9,0.5023,-0.1539,10.1735,5.102,2.4901,0.043
5.92,0.3428,-0.2267,10.2553,6.7998,-0.5326,-0.5319
5.94,0.3579,-0.1796,10.2473,4.8957,0.0537,2.7406
5.96,0.3857,-0.1682,10.1029,3.063,-2.9527,3.0449
5.98,0.2672,-0.1097,10.2163,1.4141,-3.1595,2.8672
6.0,0.2934,-0.1206,10.211,1.4918,-3.9396,3.9357
6.02,0.1525,-0.1017,10.0871,-0.6641,-0.4881,3.433
6.04,0.1018,-0.0946,10.0667,-1.5652,-4.1652,3.6631
6.06,0.1062,-0.0544,9.9799,-6.4044,-1.9767,1.6146
6.08,0.0809,-0.0552,9.9165,-5.8848,-2.6767,2.1361
6.1,-0.0614,0.0143,9.8551,-4.9613,-6.7908,1.0985
6.12,-0.0451,0.0638,9.9946,-3.9587,-3.5631,1.464
6.14,-0.2056,0.146,9.9856,-7.7562,-3.8215,1.1478
6.16,-0.2931,0.1144,10.0478,-5.0494,-6.3592,-0.2678
6.18,-0.2356,0.1304,10.0706,-10.155,-5.1831,1.2681
6.2,-0.2749,0.1274,10.0971,-9.8229,-2.6352,-1.6158
6.22,-0.3276,0.1374,10.2618,-11.5525,-2.3737,-1.1963
6.24,-0.3634,0.192,10.2512,-7.2833,1.392,-2.0619
6.26,-0.2134,0.0851,10.2847,-7.2309,0.7696,-3.9657
6.28,-0.2519,0.1548,10.1818,-6.6315,-0.4804,-2.8488
6.3,-0.3628,0.194,10.2706,-4.1085,4.7995,-3.6781
6.32,-0.3376,0.2383,10.1346,-1.8609,2.3812,-2.7518
6.34,-0.2662,0.2473,10.191,-2.326,4.2103,-2.7899
6.36,-0.0773,0.371,10.0188,-2.9136,3.7916,-3.0184
6.38,-0.085,0.3154,10.0258,-5.1971,6.6358,-2.0894
6.4,-0.0233,0.2656,9.8972,-2.1826,6.6059,-0.3138
6.42,0.0384,0.1107,9.7625,1.8859,5.4387,1.2531
6.44,0.1489,0.3334,9.9175,-2.2362,7.7434,0.1003
6.46,0.061,0.1774,9.9049,-0.0474,2.9073,0.407
6.48,0.1093,0.3035,10.0772,2.8154,2.3614,1.2702
6.5,0.1505,0.3195,10.1436,2.6097,3.0486,1.2322
6.52,0.2431,0.2483,10.1264,5.8932,3.9739,2.6856
6.54,0.3204,0.2277,10.1384,6.3302,1.1637,4.6337
6.56,0.4478,0.0938,10.2107,4.5074,0.7357,2.2787
6.58,0.3978,0.2926,10.214,6.1924,-2.5715,2.4331
6.6,0.2356,0.2554,10.2012,9.1833,-0.5365,3.0761
6.62,0.3741,0.0432,10.1479,12.7457,0.1842,1.6405
6.64,0.3467,0.1399,10.2267,9.2715,-3.8017,3.0196
6.66,0.2474,0.0927,10.1417,5.609,-3.1936,-0.0605
6.68,0.1608,0.0497,10.0167,5.0353,-3.3431,0.6354
6.7,0.1021,0.0727,9.9521,9.6103,-2.857,0.5187
6.72,0.1842,0.132,9.8467,5.1351,-4.2277,-0.5572
6.74,0.0511,0.0363,9.8646,6.5216,-5.9731,-0.9247
6.76,-0.0884,-0.0607,9.8195,2.7232,-7.77,-2.2258
6.78,-0.1549,-0.1043,9.9083,6.9515,-2.6042,-2.2627
6.8,-0.1375,-0.0534,9.9973,2.7278,-0.3598,-3.3642
6.82,-0.2181,-0.0298,9.9596,0.5892,-1.8357,-1.8079
6.84,-0.2204,-0.1119,10.08,-1.1499,-3.0424,-2.4496
6.86,-0.3749,-0.2142,10.1753,-3.6308,0.0698,-2.4504
6.88,-0.4105,-0.2172,10.2525,-6.1702,-1.9071,-4.5285
6.9,-0.3006,-0.1646,10.1989,-6.1716,0.0581,-1.0761
6.92,-0.2531,-0.1578,10.2036,-5.5932,1.4264,-1.0087
6.94,-0.2877,-0.2672,10.138,-7.7689,3.4691,-1.2902
6.96,-0.4037,-0.2275,10.2033,-6.3373,-0.2686,0.2067
6.98,-0.2156,-0.1123,10.1082,-4.8617,5.0454,0.395
7.0,-0.1682,-0.2457,10.0637,-11.6075,3.6769,0.2586
7.02,-0.2501,-0.1638,9.9311,-7.2907,5.7178,1.6376
7.04,0.1149,-0.3671,9.9333,-8.3016,6.1066,1.5711
7.06,0.0151,-0.3065,9.8709,-9.4621,6.1266,2.58
7.08,0.0437,-0.303,9.8828,-6.5088,5.1871,4.2154
7.1,0.0428,-0.3271,10.0115,-10.1172,4.4008,1.7943
7.12,0.1605,-0.0943,10.0281,-10.4224,2.9015,1.1716
7.14,0.0858,-0.2624,10.0775,-5.219,4.1766,3.3262
7.16,0.2981,-0.3124,10.0858,-4.019,0.6883,2.6736
7.18,0.1646,-0.1659,10.2262,-2.99,2.6519,1.8668
7.2,0.3962,-0.1986,10.1519,-2.7276,1.7255,2.8271
7.22,0.2492,-0.1483,10.3331,0.2121,0.5882,0.2562
7.24,0.3749,-0.2043,10.2324,-0.7337,1.1379,1.552
7.26,0.3283,-0.1307,10.1898,3.0966,-1.1885,0.9769
7.28,0.3549,-0.0058,10.0913,4.0699,-4.7366,-1.2569
7.3,0.2014,0.0128,10.1837,5.2082,-5.8626,-4.6347
7.32,0.1954,-0.1914,10.1495,3.7666,-2.638,-2.9178
7.34,0.2021,-0.024,9.9485,6.646,-0.4763,-3.0161
7.36,0.0657,-0.0243,9.839,6.6608,-4.9615,-2.4895
7.38,0.1307,0.0014,9.8842,8.5777,-5.3301,-2.5833
7.4,-0.0146,-0.0509,9.8332,6.2639,-5.2305,-2.9556
7.42,-0.1075,0.0741,9.963,7.0193,-4.4025,-2.5435
7.44,-0.1179,0.1431,9.9404,7.0197,-3.9797,-1.9642
7.46,-0.2098,0.1382,10.0135,6.1452,-5.0966,-1.6436
7.48,-0.1478,0.1756,10.1347,7.1271,-2.7749,-0.3836
7.5,-0.135,0.2049,10.1924,9.743,-1.9706,1.8045
7.52,-0.2884,0.2046,10.1391,4.0662,-2.4412,1.152
7.54,-0.6115,0.1743,10.1627,3.6977,-0.8063,2.0074
7.56,-0.3331,0.1816,10.2838,3.6155,4.3821,2.6402
7.58,-0.3909,0.1954,10.1864,6.8449,-0.1221,2.7678
7.6,-0.3016,0.1212,10.217,2.0024,1.2863,2.4548
7.62,-0.3143,0.2984,10.1214,0.5378,2.4333,0.6312
7.64,-0.1566,0.2077,10.1035,4.013,5.1845,2.457
7.66,-0.2773,0.3233,9.9908,-4.0762,5.5115,0.6151
7.68,-0.0424,0.247,9.9652,-2.9799,3.7357,1.8547
7.7,-0.0907,0.1811,9.8153,-4.2583,4.244,3.3592
7.72,0.0169,0.2805,9.8728,-5.0788,4.8655,-0.2243
7.74,0.2117,0.176,9.8986,-7.989,1.9761,0.0479
7.76,0.2358,0.222,9.9533,-8.5325,3.0552,-1.1253
7.78,0.1784,0.2586,10.0363,-7.5121,4.2969,-1.9066
7.8,0.2125,0.1692,10.0465,-6.5765,3.0907,0.1708
7.82,0.2713,0.3364,10.1897,-13.8234,4.7366,-3.5212
7.84,0.3971,0.2477,10.1802,-5.2914,1.9304,-3.3897
7.86,0.2755,0.2421,10.2287,-9.0334,-0.2621,-2.0334
7.88,0.1566,0.1161,10.1851,-7.7644,-1.1014,-3.0887
7.9,0.2358,0.2201,10.1356,-7.7014,-2.133,-3.1408
7.92,0.2922,0.1096,10.1623,-9.0783,-3.3161,-2.8775
7.94,0.1423,0.1116,10.0786,-6.7447,-1.2092,-3.5302
7.96,0.3043,0.1297,10.1222,-5.1901,-2.3818,-3.4049
7.98,0.29,0.0364,9.9393,-4.3663,-2.6993,0.4197
8.0,0.0886,0.0654,9.9183,-1.4473,-7.0425,-0.2063
8.02,-0.1106,0.0515,9.8126,0.5413,-4.5947,0.1434
8.04,-0.0022,0.017,9.7414,-0.748,-4.5977,0.0668
8.06,0.0423,-0.0856,9.9154,0.4005,-4.1341,-0.2071
8.08,-0.0473,-0.0877,10.0214,1.552,-4.4511,2.5012
8.1,-0.1717,-0.0413,10.0701,5.0049,-1.7653,2.2313
8.12,-0.2042,-0.0695,10.1808,4.1015,-3.7157,3.9623
8.14,-0.3068,0.0093,10.1873,5.1081,-3.0595,2.4358
8.16,-0.2809,-0.263,10.1995,8.3884,0.0247,2.8357
8.18,-0.2845,-0.3058,10.1741,5.9581,0.0037,2.8727
8.2,-0.3296,-0.1097,10.1983,7.879,-0.8998,2.1379
8.22,-0.3842,-0.2698,10.162,8.492,-0.2792,2.9998
8.24,-0.3617,-0.1748,10.1341,9.0865,1.2189,2.8098
8.26,-0.1809,-0.2844,10.1102,7.748,2.7394,2.2406
8.28,-0.1243,-0.2798,10.1042,6.3393,4.5899,0.7791
8.3,-0.1352,-0.2541,9.9845,5.8278,5.8033,-0.1141
8.32,-0.1283,-0.1915,9.9314,5.7639,3.7577,0.3778
8.34,-0.0633,-0.1837,9.8283,5.8286,6.5903,-3.1933
8.36,0.0651,-0.0696,9.8543,5.7469,7.5425,-1.5602
8.38,0.1619,-0.213,9.9147,4.9105,4.0336,-2.8913
8.4,0.1218,-0.201,10.0111,0.9716,6.011,-2.2721
8.42,0.3008,-0.2963,10.0934,0.5058,5.0691,-4.6811
8.44,0.2378,-0.3464,10.1549,-1.7918,2.1855,-1.6919
8.46,0.1766,-0.1854,10.075,-6.2244,2.2769,-2.6339
8.48,0.2188,-0.2398,10.2476,-1.0691,1.3458,-2.6122
8.5,0.3699,-0.1725,10.2607,-5.5537,0.539,-2.1904
8.52,0.3886,-0.191,10.1952,-5.0541,-0.5964,-1.6504
8.54,0.2478,-0.1152,10.1546,-3.5873,-3.1549,-1.9134
8.56,0.3001,-0.0955,10.095,-8.0453,-3.9986,0.9959
8.58,0.304,-0.0893,10.1918,-9.1105,-3.4548,2.3558
8.6,0.2048,-0.1268,10.1308,-6.8399,-4.3381,1.1207
8.62,0.1788,-0.0048,10.0129,-10.8665,-6.6665,2.5426
8.64,0.048,-0.0727,9.8574,-8.8375,-3.8669,2.2237
8.66,0.0388,-0.053,9.814,-9.7956,-5.9284,2.4239
8.68,-0.0088,-0.0196,9.7799,-7.3473,-4.7595,2.0831
8.7,-0.0405,0.0531,9.9633,-7.8602,-2.1828,3.475
8.72,-0.1128,0.1413,10.0802,-5.1965,-6.7022,4.1188
8.74,-0.2887,-0.0331,10.0555,-5.872,-3.4596,1.3321
8.76,-0.2449,0.0563,10.1145,-4.0552,-3.7824,2.2821
8.78,-0.3236,0.1424,10.0641,-2.3432,-3.4625,1.7508
8.8,-0.3914,0.1985,10.2269,-1.709,-2.4622,1.0296
8.82,-0.3493,0.1951,10.1998,0.7023,-0.2512,0.0085
8.84,-0.2504,0.0901,10.2357,4.2967,0.0656,-0.243
8.86,-0.5107,0.1758,10.108,-2.611,-2.0121,-0.7337
8.88,-0.2539,0.2149,10.1213,6.1012,0.5782,-1.0754
8.9,-0.4094,0.2294,10.1208,4.3576,1.2726,-0.3971
8.92,-0.2694,0.2045,10.1426,5.2232,4.4511,-3.215
8.94,-0.1089,0.2709,10.0212,8.7013,4.8572,-3.5018
8.96,-0.2258,0.3033,9.8682,4.2902,5.1393,-3.2131
8.98,-0.0823,0.2657,9.8448,9.9216,4.1331,-4.045
9.0,-0.0538,0.1878,9.7046,6.861,5.0531,-2.0473
9.02,0.0318,0.2781,9.8873,7.1002,2.29,-2.2727
9.04,0.2076,0.2404,10.0144,8.4057,1.2259,-3.1393
9.06,0.2126,0.2831,10.0679,8.7218,5.2485,-2.0902
9.08,0.2075,0.3229,10.1242,6.4577,2.4966,-1.2715
9.1,0.2298,0.16,10.1802,4.8607,2.4852,-0.3771
9.12,0.2834,0.2481,10.1991,5.0947,2.0918,0.4097
9.14,0.3309,0.2407,10.2646,7.877,-0.5888,1.1586
9.16,0.3455,0.2009,10.3244,5.4005,-0.6107,2.4653
9.18,0.3221,0.1041,10.2251,2.216,-0.0527,2.15
9.2,0.3214,0.1742,10.191,4.5695,-1.5918,3.3881
9.22,0.1876,0.1033,10.055,1.5793,-4.3449,3.0567
9.24,0.285,0.0503,10.1259,-2.2475,-1.4025,2.4795
9.26,0.1465,0.0341,9.951,-6.0279,-3.9733,2.014
9.28,0.098,0.0926,9.9764,-5.1437,-5.5482,1.6004
9.3,0.0532,0.0231,9.892,-4.5635,-4.9252,1.4103
9.32,-0.1076,0.0209,9.9033,-4.7261,-5.0011,1.897
9.34,-0.0374,-0.0825,9.8668,-8.918,-5.4588,1.9264
9.36,-0.054,-0.0561,9.9658,-7.5458,-3.902,-0.7937
9.38,-0.311,-0.1088,10.0451,-7.8351,-3.9694,-1.1012
9.4,-0.1582,-0.1053,10.0485,-10.4963,-4.7037,-0.0396
9.42,-0.2545,-0.1245,10.1846,-5.4437,-2.2936,0.7947
9.44,-0.4407,-0.1902,10.1323,-4.4794,-2.9951,-3.1315
9.46,-0.3528,-0.1355,10.2077,-7.4605,-3.4347,-2.0375
9.48,-0.3651,-0.1153,10.2831,-5.82,0.4383,-4.2805
9.5,-0.3595,-0.315,10.1671,-7.7983,0.12,-1.3157
9.52,-0.2409,-0.261,10.2183,-3.0204,3.0706,-1.9429
9.54,-0.0838,-0.2146,10.1233,-2.4491,0.6718,-2.5229
9.56,-0.3396,-0.2419,10.0749,-0.8991,1.2248,-0.6356
9.58,-0.2378,-0.2575,9.9397,-4.9042,5.513,-1.8042
9.6,-0.0729,-0.2459,9.8843,-3.5829,3.7372,-0.0561
9.62,-0.0991,-0.1522,9.876,-4.2339,2.7614,-0.8911
9.64,-0.0777,-0.2908,9.7682,-0.2073,4.182,2.3874
9.66,0.1554,-0.1898,9.912,0.0584,5.549,0.1826
9.68,0.2148,-0.23,9.9443,3.7815,3.6181,1.5194
9.7,0.3277,-0.304,10.0031,1.3321,3.7215,2.1827
9.72,0.2522,-0.2633,10.1432,2.5963,5.6606,2.4868
9.74,0.3052,-0.2537,10.2228,8.8943,6.362,4.6481
9.76,0.2371,-0.1748,10.1031,4.9664,4.1477,2.1964
9.78,0.2919,-0.2138,10.2313,11.3068,1.3187,3.5201
9.8,0.3541,-0.1671,10.2852,7.7513,0.0812,4.0276
9.82,0.4091,-0.1734,10.1942,11.0417,-2.3903,2.8447
9.84,0.2875,-0.0687,10.1785,6.1145,-2.3671,0.887
9.86,0.4168,-0.1122,10.1498,6.766,-0.571,0.0796
9.88,0.1538,-0.0798,10.1735,6.7466,-5.2149,1.1014
9.9,0.204,-0.0275,9.9967,9.6119,-5.4343,0.6736
9.92,0.2081,0.0161,9.9667,6.1399,-3.5474,-0.4749
9.94,0.0817,-0.0579,9.8485,5.0298,-4.0739,0.6058
9.96,0.0367,0.0925,9.8841,4.92,-3.7031,-2.1107
9.98,-0.0848,-0.0262,9.9012,0.8316,-5.3234,-1.0204
10.0,-0.0699,0.0742,9.9285,-0.7205,-4.7698,-2.1704
10.02,-0.0741,0.1468,10.1539,-1.7133,-3.9804,-1.8869
10.04,-0.348,0.1538,10.1546,1.9147,-2.8958,-4.0422
10.06,-0.446,0.17,10.061,2.3602,-2.8158,-1.8185
10.08,-0.3112,0.1546,10.166,0.6639,0.4708,-2.8463
10.1,-0.473,0.2227,10.2312,-3.5704,0.1165,-2.9256
10.12,-0.3986,0.146,10.3121,-4.6266,2.791,-2.6809
10.14,-0.4117,0.1826,10.1996,-3.922,1.7347,-3.0824
10.16,-0.2287,0.314,10.2177,-7.006,4.7318,-0.4028
10.18,-0.2676,0.1519,10.207,-3.5558,5.3062,0.2478
10.2,-0.2627,0.188,10.0668,-7.1818,3.6449,0.2997
10.22,-0.0759,0.2123,10.0782,-7.4678,4.1897,3.5155
10.24,-0.2717,0.2958,9.8947,-8.7182,3.2803,2.9844
10.26,0.0437,0.2655,9.8656,-6.8987,3.596,2.3344
10.28,0.0483,0.2446,9.8299,-11.2737,2.5988,3.2709
10.3,0.0093,0.1988,9.9095,-7.5769,4.735,2.9568
10.32,0.0856,0.1597,9.9783,-7.0489,3.3733,3.9633
10.34,0.248,0.1498,9.9655,-9.6413,3.6215,2.5617
10.36,0.3473,0.1555,10.1414,-3.9193,4.2988,2.754
10.38,0.2253,0.2748,10.1015,0.6728,3.5621,2.2868
10.4,0.1764,0.1853,10.1197,-1.8636,0.8137,1.4809
10.42,0.3923,0.1547,10.238,-3.3612,-0.0357,-0.6422
10.44,0.4315,0.1629,10.1413,-0.3581,1.6616,-0.2209
10.46,0.3008,0.1787,10.2536,0.9929,-4.4355,-0.2252
10.48,0.2053,0.1728,10.1556,3.4597,-0.6455,-2.068
10.5,0.3001,0.204,10.1703,2.9616,-2.382,-3.1809
10.52,0.2547,0.0873,10.1211,7.2456,-3.6647,-3.9359
10.54,0.2373,0.0387,9.9872,2.7696,-3.3294,-3.8704
10.56,0.0439,0.1516,9.9049,8.6792,-5.3029,-2.3998
10.58,0.1354,0.0347,9.8442,7.8174,-4.3824,-3.31
10.6,0.0553,-0.1001,9.8215,7.3773,-3.7862,-3.7212
10.62,0.0126,0.0526,9.9012,6.6788,-4.4867,-2.3345
10.64,-0.114,-0.0452,9.923,6.5315,-3.0718,-0.5416
10.66,-0.2306,-0.0997,10.074,8.5589,-4.0386,-0.9384
10.68,-0.0966,-0.0855,10.0546,2.5544,-4.056,-0.2504
10.7,-0.347,-0.0595,10.2034,6.4578,-0.141,-0.0037
10.72,-0.3164,-0.0282,10.1596,6.0406,-1.7824,-0.5502
10.74,-0.3568,-0.1901,10.1739,7.7006,2.3837,1.8384
10.76,-0.3538,-0.1947,10.2269,2.8347,-0.389,1.6949
10.78,-0.2923,-0.233,10.131,1.3593,-1.3335,1.2499
10.8,-0.4527,-0.2409,10.1464,1.3054,2.283,1.1583
10.82,-0.2362,-0.2595,10.1832,-2.1807,6.3162,3.6644
10.84,-0.1998,-0.1701,10.1456,-2.8321,4.6338,5.0054
10.86,-0.1477,-0.1966,10.0241,1.5581,4.6056,1.8235
10.88,-0.1874,-0.3274,9.9676,-1.0769,2.5228,3.4664
10.9,-0.0129,-0.2848,9.8617,-2.8601,5.1965,1.2029
10.92,-0.0899,-0.2488,9.7247,-2.2529,5.9603,2.9646
10.94,0.1714,-0.163,9.818,-4.9785,4.0147,1.2252
10.96,0.0892,-0.2352,9.8972,-5.9457,4.1871,1.4517
10.98,0.1684,-0.204,10.0543,-6.7155,4.1774,0.1095
11.0,0.2406,-0.2868,9.9998,-2.1479,2.7355,-0.6262
11.02,0.2642,-0.2035,10.2093,-11.379,2.1647,-2.6134
11.04,0.1943,-0.1505,10.1833,-7.1382,1.3313,-1.9447
11.06,0.2808,-0.093,10.1944,-10.3564,2.4014,-3.8952
11.08,0.2633,-0.2019,10.1577,-7.0168,-0.7032,-3.991
11.1,0.3367,-0.1416,10.272,-2.5742,1.009,-2.3288
11.12,0.361,-0.1342,10.0849,-7.3241,-2.1225,-1.9819
11.14,0.3537,-0.1066,10.1324,-4.4349,-3.2525,-2.6058
11.16,0.2156,0.0297,10.0594,-9.0781,-3.4181,-2.8422
11.18,0.164,-0.2014,10.0824,-1.9238,-1.302,-2.3451
11.2,-0.0592,-0.0053,9.9395,-1.2077,-6.213,-1.1616
11.22,-0.1501,-0.0703,9.9181,0.4662,-2.5932,-3.0159
11.24,-0.0171,-0.0101,9.7934,-0.7201,-4.7121,-0.7907
11.26,-0.0105,0.0365,9.884,-1.1728,-4.1916,0.0358
11.28,-0.2189,0.0489,10.0076,4.4668,-4.5225,2.7854
11.3,-0.0453,0.0717,10.0366,2.6621,-3.2706,0.8143
11.32,-0.3296,0.0822,10.0807,4.2079,-4.2288,2.9054
11.34,-0.1607,0.1422,10.1499,4.3266,-5.0512,3.2365
11.36,-0.439,0.102,10.1384,2.481,-1.2914,1.656
11.38,-0.3018,0.1154,10.1561,4.2699,-0.0456,2.6199
11.4,-0.3745,0.2234,10.247,4.1058,0.4541,3.9941
11.42,-0.2363,0.18,10.1432,8.6061,1.1485,5.3047
11.44,-0.4133,0.1805,10.2057,5.7784,3.4641,2.7809
11.46,-0.2674,0.1338,10.1676,8.7059,4.1119,0.8273
11.48,-0.3702,0.2289,10.0527,10.1617,1.5244,1.1539
11.5,-0.1171,0.2389,10.0436,6.6863,2.777,0.7442
11.52,-0.2402,0.1346,9.9026,3.7839,1.1308,-1.5462
11.54,-0.156,0.1991,9.9105,1.2552,3.7857,-2.1721
11.56,-0.1153,0.2686,9.7962,5.4664,6.256,-3.3516
11.58,0.0609,0.2774,9.7802,2.5483,5.9228,-0.0906
11.6,0.068,0.2874,9.9598,6.3198,4.7546,-3.9449
11.62,0.1581,0.2738,9.9724,1.535,7.9248,-4.4037
11.64,0.3035,0.3173,10.1046,0.8157,5.9453,-2.4441
11.66,0.294,0.3077,10.1047,-2.4863,1.0143,-3.7345
11.68,0.3616,0.2473,10.0846,-0.6233,0.0412,-0.1074
11.7,0.3247,0.2113,10.1511,-3.5937,-0.3707,-2.7975
11.72,0.5271,0.1672,10.2412,-2.0876,2.0353,-2.0935
