time_s,Ax,Ay,Az,Gx,Gy,Gz
0.0,0.008,-0.0806,9.8076,-0.514,0.954,-0.1384
0.02,0.0338,0.0083,9.7804,-0.6091,-0.3495,-0.5658
0.04,0.0084,-0.0503,9.7609,0.945,0.9026,-1.2673
0.06,-0.0541,0.0306,9.8655,1.5654,-0.3763,0.5938
0.08,0.0936,0.0167,9.8089,-1.1578,-0.0178,0.7351
0.1,-0.0304,-0.0396,9.8178,-0.3993,-0.5275,0.023
0.12,-0.0747,0.0384,9.7961,0.635,-0.48,-0.7096
0.14,-0.0145,0.0707,9.8607,0.9781,-0.8717,0.3455
0.16,0.0025,-0.0085,9.8323,-0.3223,-0.3388,-1.4061
0.18,-0.0301,-0.0179,9.8178,-0.797,1.2775,-0.9447
0.2,0.0313,-0.028,9.8069,-1.4844,1.1358,-0.1045
0.22,0.044,0.015,9.7918,0.1202,-0.4755,-0.6152
0.24,-0.002,0.0627,9.8657,-0.1691,-0.4069,-0.2053
0.26,0.032,0.0337,9.7726,0.3417,-1.3118,-0.7366
0.28,-0.0021,0.0283,9.7919,0.6358,-0.0412,0.8122
0.3,0.0043,-0.0065,9.833,-0.2776,-0.6255,-0.238
0.32,0.0143,-0.0675,9.8436,-0.1345,0.0069,-0.2538
0.34,-0.0031,-0.0243,9.8093,-0.7509,0.1291,0.6354
0.36,-0.0022,0.0276,9.7916,-0.0112,0.8448,0.3333
0.38,-0.0038,-0.0425,9.7907,-0.2648,-0.7883,0.0475
0.4,-0.0286,0.042,9.7793,-0.0381,-0.8419,-1.1164
0.42,-0.0721,0.0262,9.7639,-0.5002,-2.3597,-0.8413
0.44,0.0633,-0.0406,9.8093,-1.5916,-1.3457,-0.7409
0.46,-0.0178,-0.0198,9.8412,-0.0884,0.798,-0.0124
0.48,0.0776,0.0366,9.748,-0.2221,-0.3023,-0.6341
0.5,-0.0595,0.0426,9.8218,-1.4402,0.2208,-0.561
0.52,0.0029,-0.0117,9.805,-0.9093,1.6209,-0.506
0.54,-0.012,-0.0291,9.8328,0.7009,0.6821,0.0575
0.56,-0.0265,-0.0689,9.766,-0.7207,0.3254,-0.5223
0.58,-0.0345,0.0733,9.846,0.0186,0.5112,-0.0572
0.6,0.005,-0.0043,9.7938,-1.3028,-1.1,0.2908
0.62,0.005,-0.0057,9.816,-0.6499,-0.4251,0.8712
0.64,-0.0002,0.0233,9.8438,-1.8697,0.3098,0.7273
0.66,0.0488,0.006,9.8341,-0.4097,0.5914,0.3586
0.68,-0.0035,-0.0556,9.7956,-2.006,0.9531,-0.8075
0.7,0.0191,-0.0438,9.7766,-0.4435,0.1531,-1.4018
0.72,-0.0566,0.015,9.7689,-2.085,-0.6277,-0.334
0.74,0.0005,0.0361,9.8367,-0.1339,-0.664,0.1425
0.76,-0.0499,-0.0532,9.8287,-0.6029,0.5885,1.4926
0.78,-0.0259,0.0158,9.8043,0.2693,-0.6673,0.6575
0.8,-0.0444,0.0304,9.8637,0.2063,0.4785,-1.2848
0.82,0.0081,-0.0068,9.7659,-0.3729,0.7618,-0.2842
0.84,0.0126,-0.012,9.8309,-0.6622,-0.9232,-0.7859
0.86,0.022,0.0269,9.8299,-0.9525,-1.8139,0.8667
0.88,-0.0469,0.0115,9.7671,1.3836,1.1133,0.3081
0.9,-0.0137,0.0716,9.8086,-0.1461,1.7926,0.2396
0.92,0.0259,-0.037,9.7787,-0.0039,0.0454,1.2846
0.94,0.0224,0.0475,9.7972,0.4621,-0.4991,-0.1131
0.96,0.0251,-0.0211,9.8243,1.3737,0.3491,-0.4326
0.98,-0.013,0.0218,9.7953,-0.2423,2.0477,-0.7669
1.0,0.0213,0.0148,9.8306,0.444,-0.3988,0.4151
1.02,0.0377,0.0393,9.7666,-0.2587,1.0821,0.233
1.04,-0.0256,-0.0068,9.7628,-1.2524,-0.0164,0.2578
1.06,0.0207,-0.0014,9.809,0.5911,-0.4529,-0.9027
1.08,0.0193,0.0479,9.7892,-0.3103,0.5457,0.8866
1.1,-0.013,0.0071,9.8193,-0.1777,0.7781,-1.0712
1.12,0.0069,-0.0089,9.8484,0.1232,0.2425,0.07
1.14,0.0323,-0.0097,9.7887,0.688,-0.4274,-0.7381
1.16,-0.0565,0.0009,9.7893,-0.0173,-0.6784,-0.1182
1.18,-0.017,-0.0313,9.8327,0.1464,0.1996,-0.7349
1.2,0.0114,-0.0485,9.835,-0.592,0.7874,0.3945
1.22,-0.0021,-0.0114,9.7727,0.4752,0.811,0.086
1.24,0.0069,-0.0144,9.8525,0.505,0.0975,-1.1044
1.26,-0.001,0.0712,9.8109,0.2149,1.4177,0.2242
1.28,-0.0031,0.0701,9.7719,-0.7417,0.4592,0.4233
1.3,0.006,-0.0361,9.8173,0.9804,1.1021,1.1453
1.32,0.0318,0.0465,9.7709,0.0755,-0.081,-0.0313
1.34,0.044,0.0508,9.8697,1.431,-0.4402,-0.5538
1.36,0.0007,-0.0625,9.7994,0.0717,-0.5655,-0.8636
1.38,0.0271,0.0288,9.7546,-0.3972,0.8218,1.2874
1.4,-0.0611,-0.0377,9.8174,1.1798,0.2369,-1.0452
1.42,0.0173,-0.0065,9.7361,-0.0468,0.3587,-0.7691
1.44,0.0257,-0.0133,9.8101,-0.2327,-0.5774,-0.3964
1.46,0.0452,0.0082,9.8317,-0.5904,0.3509,-0.25
1.48,0.0339,0.0085,9.855,-0.9934,1.1074,-0.4751
1.5,0.0003,0.0362,9.8184,-1.4725,0.0728,-0.0149
1.52,0.0845,0.0514,9.8172,0.6003,0.8235,1.2422
1.54,-0.0338,0.0004,9.8349,0.6677,0.2701,0.4035
1.56,-0.0207,-0.0144,9.8276,-0.1175,0.3307,0.8847
1.58,0.0604,-0.0064,9.8286,-1.8136,0.1931,0.0317
1.6,-0.0428,-0.0313,9.8382,0.2189,0.5001,-1.1175
1.62,-0.037,-0.0497,9.7804,0.1897,1.6276,-1.0779
1.64,0.0398,-0.0719,9.8208,0.3716,0.3914,1.0687
1.66,-0.0712,0.0111,9.757,-0.5039,-0.1741,-0.0621
1.68,-0.0561,-0.0139,9.8248,0.4711,-0.1049,-0.0014
1.7,-0.0008,0.0297,9.7889,0.7998,0.1257,1.3115
1.72,-0.0142,-0.0224,9.8497,1.6828,-1.6324,0.9662
1.74,-0.0041,0.0231,9.8199,0.7881,-0.8416,0.5604
1.76,-0.0201,0.0396,9.813,-1.7133,0.0668,-1.0513
1.78,-0.017,-0.085,9.7634,0.8878,-0.239,0.9445
1.8,0.0332,0.0241,9.8813,-1.165,-1.1304,-1.0131
1.82,0.0435,-0.0663,9.7951,0.2826,0.2916,-0.2736
1.84,0.0078,-0.0103,9.8126,-0.8104,0.3147,-0.1354
1.86,-0.0217,0.0368,9.8408,1.3359,-1.7081,0.0409
1.88,0.0751,-0.0522,9.8292,0.9335,0.005,0.6999
1.9,0.0262,-0.0211,9.8395,-0.1991,0.2541,0.2456
1.92,0.0218,-0.0376,9.8016,-0.2249,0.4934,0.7487
1.94,-0.0028,-0.0374,9.8427,1.1835,0.6584,0.7392
1.96,-0.0014,0.0257,9.8553,-0.4517,0.0512,0.6555
1.98,-0.005,0.0496,9.824,0.455,0.1974,-0.2115
2.0,-0.0053,0.0175,9.8009,0.0487,-1.1202,-0.4585
2.02,-0.0073,0.0048,9.7606,1.4232,-0.468,0.079
2.04,-0.0709,-0.0573,9.7852,-0.7657,0.1728,-0.1663
2.06,0.0295,-0.0538,9.7655,0.5981,0.0565,-0.259
2.08,0.0395,0.0504,9.7549,-1.0951,1.1464,-1.4092
2.1,-0.0173,0.01,9.7751,-0.0278,-0.3353,0.5597
2.12,-0.0014,0.006,9.8244,0.6691,-0.242,0.5721
2.14,0.0104,0.0052,9.8132,-1.5805,-0.1801,-0.3884
2.16,0.0229,-0.0363,9.8044,-1.1765,0.5609,0.3967
2.18,0.0397,-0.0167,9.8065,-0.7001,0.0522,-0.0042
2.2,-0.0211,-0.0274,9.8308,-2.9098,-1.4299,-0.0954
2.22,-0.0039,-0.0275,9.7623,0.6554,0.1991,-0.0551
2.24,-0.0545,0.0107,9.8314,1.1399,0.0903,0.2588
2.26,-0.0594,0.1004,9.8124,0.829,1.0629,0.0086
2.28,0.0063,-0.0161,9.7876,0.8935,1.403,-1.3996
2.3,0.0186,-0.0017,9.8058,0.2447,-0.5537,0.6463
2.32,0.0257,-0.0103,9.7759,0.3911,1.1665,1.3207
2.34,0.033,0.0255,9.7395,-1.5886,0.5031,-0.5555
2.36,0.0079,0.0245,9.7922,-0.645,-0.2975,0.8067
2.38,0.0225,0.0272,9.7764,-1.035,-0.2576,0.4726
2.4,-0.0064,-0.0388,9.8194,-0.7821,0.5625,-0.2443
2.42,0.0343,-0.1032,9.7819,-0.5632,-0.4292,0.1616
2.44,-0.0242,-0.0375,9.8099,-0.2665,0.2868,-0.2138
2.46,0.0188,0.0218,9.8165,-0.1258,0.234,-0.0892
2.48,0.0039,-0.0055,9.7871,-1.0466,0.6321,-0.134
2.5,0.0042,0.0173,9.8224,-0.3203,0.0685,-0.8401
2.52,0.0156,0.072,9.8132,1.3857,0.7201,0.8155
2.54,-0.026,-0.027,9.782,0.7481,-0.748,-0.5147
2.56,0.0337,-0.0692,9.8002,-1.069,-1.0681,-0.2366
2.58,0.0783,-0.0757,9.8485,-0.6269,0.1608,1.1063
2.6,-0.0154,-0.024,9.829,-0.5265,-0.8981,-0.164
2.62,-0.0184,-0.0339,9.8066,0.9697,-0.6207,0.9369
2.64,-0.0222,0.0812,9.8325,0.3376,-0.932,-1.6689
2.66,0.0197,-0.0282,9.7714,0.7138,0.4361,0.9537
2.68,-0.0109,0.0439,9.8453,-0.2761,-1.2597,-0.5262
2.7,0.0308,-0.0368,9.8401,-0.4179,1.7149,-0.0322
2.72,-0.0489,0.0001,9.8315,-0.3638,-0.1538,-0.2757
2.74,0.1058,0.0706,9.8046,-0.6895,1.0542,0.3638
2.76,-0.0312,-0.0307,9.8086,0.2915,0.3652,-0.4482
2.78,0.0749,-0.0327,9.8458,0.6324,0.0015,0.3768
2.8,0.0213,0.0009,9.799,-0.4621,-0.069,-0.6216
2.82,0.0222,-0.0345,9.8163,0.5342,0.1381,-0.4915
2.84,0.0788,-0.0064,9.8036,-0.5084,-0.2294,-0.9992
2.86,0.0044,-0.0297,9.8199,0.9195,-0.7078,0.0746
2.88,-0.0427,0.0066,9.7328,0.3813,-0.2547,-0.0461
2.9,0.0287,0.0411,9.8115,0.3753,1.3122,-1.4376
2.92,-0.0013,-0.0359,9.8117,-0.0688,-0.1785,-0.8974
2.94,0.0163,0.058,9.837,0.878,0.1916,0.0092
2.96,0.0319,-0.0029,9.8263,1.3408,-0.5264,-0.5033
2.98,-0.0316,0.0364,9.7721,-0.0204,0.1445,0.1578
3.0,-0.0295,-0.0133,9.8418,1.1384,-0.0505,-1.7133
3.02,-0.0027,-0.0245,9.851,-1.6404,-0.9321,-1.0287
3.04,0.0405,-0.06,9.8228,0.0939,-0.6724,0.5079
3.06,-0.0455,-0.0116,9.8929,-1.1972,0.5193,-0.9647
3.08,-0.0611,-0.0245,9.8469,-1.2541,-0.793,0.3736
3.1,-0.0107,0.051,9.7406,-0.1936,0.451,0.4436
3.12,-0.0223,0.0311,9.767,0.3407,-0.3516,1.1988
3.14,-0.041,-0.0349,9.8589,0.4708,1.3408,-0.4267
3.16,0.0035,-0.0433,9.8077,-0.4307,0.0942,-1.2637
3.18,0.0001,-0.0202,9.7929,0.2477,-1.992,-1.8177
3.2,0.0029,0.0123,9.7901,0.2865,-1.0073,-1.1996
3.22,-0.0724,-0.0156,9.8534,-0.4009,-0.1534,-0.3794
3.24,0.0343,-0.0304,9.7935,-0.2962,-0.3885,0.6033
3.26,0.0542,0.0118,9.8459,0.3818,1.2992,-0.4578
3.28,0.034,-0.0461,9.8227,0.2143,-0.8179,-0.7372
3.3,0.0028,0.0653,9.8168,1.9807,-0.7418,0.2856
3.32,-0.0393,-0.0168,9.8294,0.6504,0.6967,0.1411
3.34,0.0093,-0.0174,9.8141,0.0196,0.3527,0.1672
3.36,-0.055,0.0575,9.7749,0.3913,1.0634,1.1579
3.38,-0.0555,-0.0537,9.8,-0.2669,0.6765,1.6205
3.4,-0.0384,-0.0239,9.8124,-0.2201,1.057,-0.6481
3.42,-0.0371,-0.0488,9.8132,0.164,-0.3668,-0.2351
3.44,0.0019,-0.0147,9.7857,0.6741,-1.09,-0.1217
3.46,0.0323,0.0704,9.8134,0.3737,0.0247,0.3473
3.48,-0.0002,0.0097,9.7931,-1.4263,0.2638,0.5663
3.5,0.0317,0.0141,9.7929,-0.0712,0.4657,-0.0834
3.52,-0.0382,-0.0406,9.7522,-0.1118,1.0529,-0.0492
3.54,-0.0042,0.0123,9.8442,-0.5525,0.4148,-0.7203
3.56,-0.0192,-0.0173,9.914,-0.2489,1.4001,1.8619
3.58,-0.0441,-0.0089,9.7862,-0.9288,0.9769,0.4322
3.6,0.0211,0.084,9.8492,-0.1642,0.3909,0.8324
3.62,0.0336,0.0542,9.8372,0.3502,-1.0591,0.5567
3.64,0.0831,0.0206,9.8384,0.3037,0.0752,0.1518
3.66,-0.0431,-0.0235,9.7902,0.0731,-1.0494,0.2165
3.68,-0.0369,0.0024,9.8099,1.1036,-0.5819,-0.0683
3.7,-0.011,0.0778,9.8663,0.1545,-0.9628,-0.0374
3.72,0.0234,-0.0365,9.8041,-0.2519,0.8216,0.2234
3.74,-0.0327,-0.0096,9.8056,0.5352,-0.3194,0.0609
3.76,-0.0181,0.0135,9.8366,-0.3141,-0.1906,-0.1453
3.78,-0.0332,-0.015,9.8075,-0.8996,-0.995,-0.0066
3.8,-0.0587,0.0103,9.7693,-1.1438,1.1657,-1.2168
3.82,-0.0146,-0.0619,9.7986,-1.4289,0.2981,0.3185
3.84,0.0,0.0189,9.8488,-0.5639,-0.4735,1.1542
3.86,-0.0587,-0.0014,9.8411,0.0818,0.7281,0.2333
3.88,0.02,0.0363,9.7727,0.2321,-1.1494,1.7346
3.9,-0.0385,-0.0305,9.7968,-0.159,0.5387,1.1477
3.92,-0.0187,-0.0155,9.7311,-0.5974,0.1122,-1.1798
3.94,0.0179,0.0155,9.8424,0.5459,0.6584,-0.24
3.96,-0.0239,-0.069,9.8284,0.5533,0.2143,0.0773
3.98,-0.0887,0.0215,9.8098,0.3212,-0.5693,-0.5322
4.0,0.0313,0.0179,9.7623,1.2048,-0.0631,0.1335
4.02,0.0027,-0.0308,9.8148,-0.7866,-0.7331,-0.3055
4.04,-0.0929,0.078,9.8032,-1.4143,0.9933,1.2345
4.06,0.0063,-0.0095,9.8184,-0.1388,0.3859,-0.4247
4.08,0.0153,-0.0183,9.8207,-0.1938,0.33,-0.4761
4.1,-0.0078,-0.0292,9.797,0.8639,-0.0544,-1.5381
4.12,-0.0536,-0.0827,9.8362,-0.2438,-0.0585,-0.5464
4.14,0.0466,-0.0074,9.8266,-0.3839,0.8031,-0.2756
4.16,0.0105,-0.0033,9.8014,1.0734,0.1828,-0.3766
4.18,0.0718,-0.0452,9.776,0.9392,0.0522,0.4205
4.2,-0.0341,-0.0261,9.7516,0.5184,-1.1847,0.3382
4.22,0.0248,-0.0518,9.8418,-1.0861,0.2397,-0.072
4.24,0.0074,-0.07,9.8219,-0.0555,-0.7334,0.4021
4.26,-0.0298,-0.0251,9.8459,0.626,-0.0988,0.0781
4.28,-0.0288,-0.0595,9.81,-0.4678,0.0393,-1.1421
4.3,0.0242,-0.072,9.7492,0.7061,-0.233,1.2539
4.32,0.1221,0.1054,9.8347,0.9903,-0.5584,0.041
4.34,-0.0776,-0.0107,9.7849,0.0742,1.4249,-1.0404
4.36,0.0173,-0.0057,9.8177,0.0125,-0.4691,0.7397
4.38,0.057,-0.0112,9.8444,0.7086,0.4308,0.1283
4.4,0.0294,0.0257,9.8077,0.5601,-1.0424,1.6396
4.42,-0.0633,-0.0291,9.8248,-0.2991,-0.9691,0.6696
4.44,0.0415,0.0013,9.78,-1.0801,1.1105,0.1365
4.46,-0.0127,0.0168,9.7247,0.1203,0.5031,-0.7368
4.48,0.0559,0.008,9.838,-1.022,0.7374,0.5595
4.5,-0.0108,-0.0725,9.8406,-0.3907,0.2992,-0.3123
4.52,-0.0631,0.0297,9.8006,-1.8612,-1.0535,-1.5169
4.54,-0.0869,0.0644,9.78,-0.369,-0.328,-0.0763
4.56,0.1473,-0.018,9.7882,-0.2722,0.5682,-0.1459
4.58,-0.0009,-0.0569,9.7394,0.6425,1.065,-0.0461
4.6,0.0766,-0.002,9.7767,-0.7917,1.8113,0.8908
4.62,-0.047,-0.0291,9.8526,0.4111,-0.6825,0.2236
4.64,-0.017,0.0337,9.7867,1.3082,-0.529,-0.4122
4.66,-0.0362,0.0734,9.8381,0.3761,0.1249,1.0517
4.68,-0.0344,-0.0447,9.7786,0.035,0.0433,-0.658
4.7,0.0036,-0.0054,9.8228,-0.3304,-0.2868,-1.6519
4.72,-0.0129,0.0298,9.8194,0.974,0.8905,0.1269
4.74,-0.0033,0.005,9.8212,-0.1937,-1.3687,-0.3977
4.76,0.0463,-0.0278,9.8455,-1.0018,-0.7172,0.0526
4.78,0.0466,0.0148,9.8386,-0.1296,0.7576,0.1183
4.8,0.0463,-0.021,9.8299,-0.4324,-0.8499,-0.7515
4.82,0.0719,0.0241,9.8366,-0.2331,0.4808,-1.3356
4.84,0.0365,-0.0259,9.8276,-0.0329,1.38,-1.2969
4.86,-0.0247,-0.0086,9.8924,-1.3651,0.1416,-0.1887
4.88,0.0149,-0.0461,9.8169,1.238,-0.7259,-0.5586
4.9,-0.0112,-0.0173,9.7961,-0.9819,-0.9173,-0.6043
4.92,0.0217,-0.0349,9.7868,0.4547,1.2122,0.2575
4.94,0.0154,-0.05,9.8111,-0.6258,-0.1846,-0.5608
4.96,-0.0613,-0.0198,9.884,0.0968,1.2423,0.2855
4.98,0.0483,-0.0745,9.7987,0.1782,1.729,-0.3211
5.0,0.0085,-0.0273,9.7832,0.1808,0.9008,1.5295
5.02,0.0278,0.0356,9.796,1.0004,0.5878,0.2788
5.04,-0.065,0.0043,9.8139,0.0592,-0.0535,0.1929
5.06,-0.001,0.032,9.7926,0.2889,1.3818,0.4852
5.08,-0.0094,-0.0382,9.7528,-1.1271,-0.0695,0.2175
5.1,-0.0816,-0.0233,9.826,0.076,0.3704,-1.0018
5.12,0.025,-0.0136,9.828,-1.0434,-0.3506,0.5857
5.14,-0.0441,0.021,9.7986,0.7655,0.9057,-1.416
5.16,-0.0151,0.0328,9.8321,-0.7417,1.2923,-0.0598
5.18,0.0461,-0.0054,9.8284,0.0453,-0.4618,0.6668
5.2,0.0679,0.018,9.7855,1.8971,-0.5239,0.8691
5.22,-0.017,-0.1024,9.8003,0.2478,-1.5317,0.4746
5.24,0.0099,0.0114,9.764,-0.3875,-0.345,-0.3862
5.26,-0.0223,-0.0399,9.8223,1.1514,1.9235,1.7374
5.28,-0.0099,0.0507,9.8651,0.0938,0.0657,-1.434
5.3,0.0703,-0.0096,9.8899,0.8981,-0.8324,0.1798
5.32,0.0188,-0.0139,9.7554,0.8528,0.2751,1.0895
5.34,0.0105,0.0478,9.8242,0.9605,-0.3569,0.2527
5.36,0.0283,-0.04,9.7912,0.1623,0.5728,-1.3874
5.38,-0.0261,0.004,9.8908,1.0944,1.4702,-1.6008
5.4,0.0559,-0.0158,9.8281,-0.5967,1.3337,0.6372
5.42,-0.0189,-0.0082,9.8505,1.9086,-0.3336,0.0897
5.44,0.0262,-0.0013,9.8381,-0.615,-1.4188,-0.2383
5.46,0.0419,0.0296,9.8105,-0.6399,0.4398,-0.767
5.48,-0.0127,0.0371,9.7808,-0.5757,0.3996,0.8559
5.5,0.0048,-0.0026,9.8204,0.7257,0.8053,0.1026
5.52,0.045,0.0005,9.7672,-0.2735,-0.3553,0.2794
5.54,-0.0002,0.0617,9.8069,-0.0788,0.5145,0.5053
5.56,0.0167,-0.0341,9.8258,-0.2063,0.0146,-0.1754
5.58,0.1045,-0.0722,9.8124,-1.1809,0.7368,-1.5833
5.6,-0.017,0.0134,9.7768,-0.3072,-0.1242,-0.0366
5.62,0.0071,-0.0198,9.8249,0.832,0.474,-0.0614
5.64,0.0321,-0.0042,9.8214,0.4176,-0.4795,-0.6587
5.66,-0.0164,0.0507,9.7621,0.09,0.2406,1.4806
5.68,-0.0157,0.0013,9.8394,-0.7292,-0.458,0.0492
5.7,-0.0476,0.0039,9.8283,-0.9688,0.2376,-2.3925
5.72,-0.0059,-0.0265,9.8349,-1.7472,0.0726,-0.5599
5.74,-0.0024,-0.0519,9.7568,0.5804,1.6514,-0.4625
5.76,0.0373,0.042,9.8025,-0.7443,0.1199,-0.2292
5.78,0.0665,0.0055,9.7885,-0.3458,2.1522,0.0671
5.8,-0.0133,0.098,9.7429,1.111,0.4065,-1.2691
5.82,0.0231,0.0125,9.7689,0.172,-0.0662,0.5997
5.84,-0.0044,-0.0442,9.8254,0.434,1.3944,-0.4177
5.86,0.0181,0.0621,9.8338,-0.5387,2.1608,-1.7794
5.88,0.0118,0.0068,9.8199,-0.8217,-0.5087,0.2043
5.9,0.022,-0.0419,9.8461,0.4003,0.2602,0.6301
5.92,0.0794,-0.0301,9.7958,-0.2069,0.8825,0.6716
5.94,-0.0024,-0.0472,9.8433,-0.3236,0.3884,-0.8538
5.96,-0.0063,0.001,9.7726,-1.3499,0.2182,0.7406
5.98,-0.0005,0.0065,9.8233,0.7383,-1.2783,-0.1626
6.0,-0.0018,-0.0189,9.8012,1.2233,-0.5451,0.8622
6.02,0.0699,0.0082,9.8439,-0.0269,0.2299,-0.8193
6.04,-0.068,-0.0271,9.8032,-0.8759,0.2887,0.6289
6.06,0.0394,-0.0528,9.7772,0.3223,-0.4021,0.676
6.08,0.0083,-0.0743,9.8418,1.8667,-0.7429,-1.0365
6.1,-0.0213,-0.0562,9.8163,0.6593,1.0247,-0.8227
6.12,0.0036,-0.0205,9.7473,-0.8458,0.6222,-0.2087
6.14,-0.0303,-0.0177,9.7447,0.5096,0.4088,0.9457
6.16,-0.0279,0.0238,9.7803,0.6282,-0.5347,-0.9464
6.18,0.0183,-0.0689,9.8213,-1.8188,0.8324,-1.3665
6.2,-0.003,-0.0628,9.8044,-0.3091,-1.3723,-0.6745
6.22,-0.0481,-0.0691,9.769,1.7392,-0.1214,0.9624
6.24,-0.0004,0.0488,9.8577,-0.8043,0.4846,0.1346
6.26,-0.026,0.0132,9.8155,0.6591,0.2759,-1.5192
6.28,0.0472,-0.0864,9.8126,1.604,-1.0456,-1.3387
6.3,0.0445,-0.0276,9.7825,-0.6373,0.6089,-1.0863
6.32,-0.0493,0.0007,9.8003,-0.171,-0.0838,-0.6316
6.34,-0.0717,-0.0037,9.7801,1.3042,-0.2756,-0.0897
6.36,-0.0706,-0.0216,9.8162,-0.5797,-0.7141,1.3118
6.38,0.0259,-0.0167,9.7984,-0.4466,0.4681,1.1014
6.4,0.0259,-0.0801,9.8183,0.8105,0.2209,1.1658
6.42,0.0299,-0.0368,9.7964,0.0726,0.7398,0.2739
6.44,-0.0375,0.0027,9.8782,-0.5744,0.0437,0.8877
6.46,-0.0089,0.0017,9.7985,-0.0764,-1.3575,0.1239
6.48,0.0028,0.0114,9.8067,-2.0016,-0.051,-2.2201
6.5,-0.0598,-0.0209,9.832,1.1578,-1.1933,-0.5461
6.52,0.0143,-0.0224,9.7729,-0.4358,-0.0547,0.8499
6.54,0.0369,-0.0281,9.8289,-0.1132,-0.3999,-0.547
6.56,-0.0384,0.0034,9.8025,-0.3982,0.6897,1.1745
6.58,-0.0704,0.0233,9.8465,0.3049,-0.0392,0.4392
6.6,0.1201,0.0022,9.7612,-0.9904,-0.8403,0.4257
6.62,-0.0007,-0.0296,9.7617,-1.2894,0.9756,1.1974
6.64,-0.0053,-0.0726,9.8192,-0.0673,0.3848,1.2568
6.66,0.0123,-0.0429,9.867,0.1457,1.2257,0.4407
6.68,-0.0175,0.0264,9.8412,-0.8998,0.6568,-0.2293
6.7,0.006,0.0187,9.8594,-0.2789,0.9205,0.1675
6.72,-0.0408,-0.0115,9.8119,-1.7131,0.3162,0.0466
6.74,0.041,0.0053,9.771,0.6824,-2.0317,0.611
6.76,0.0029,0.0796,9.7804,-0.7964,1.1627,0.3743
6.78,0.0416,0.0214,9.8382,-0.483,1.2974,1.6938
6.8,0.0068,-0.0105,9.8372,-0.5366,-0.2154,0.2444
6.82,0.0146,-0.0075,9.7852,0.8922,0.4889,0.4632
6.84,0.0117,0.0166,9.8287,-1.0782,0.3259,0.4191
6.86,-0.0232,0.0027,9.8047,0.5344,-1.3544,-0.0228
6.88,0.014,0.0213,9.8715,-0.7026,-0.8497,-0.1003
6.9,-0.0039,-0.0582,9.8091,0.4075,0.0171,-0.8695
6.92,-0.0606,-0.0324,9.7565,-1.1668,-0.6935,-0.1315
6.94,0.0334,0.0299,9.7984,-0.3376,0.6849,0.9875
6.96,-0.0074,-0.0237,9.818,0.4771,-0.1314,1.6532
6.98,0.0177,0.0172,9.8151,-0.4859,0.1225,0.1531
7.0,0.0089,-0.0071,9.7955,0.3348,-0.6489,-0.7165
7.02,0.008,-0.0665,9.8322,1.6972,0.1341,-0.8348
7.04,0.0114,0.0139,9.8336,-0.0455,-0.6779,0.8085
7.06,-0.0109,0.0767,9.787,0.0531,-1.8324,0.7972
7.08,-0.0395,-0.0393,9.8122,-0.8344,-0.9608,-0.6529
7.1,0.0231,0.0188,9.8063,0.0203,0.1008,1.5377
7.12,0.064,-0.0232,9.744,1.3322,0.9161,0.7963
7.14,0.0634,-0.0409,9.8582,-0.3745,1.8815,0.6182
7.16,0.0508,0.0837,9.8132,-0.1134,0.266,-0.3007
7.18,-0.0358,0.0426,9.7959,0.5792,-0.0605,1.3004
7.2,-0.0172,-0.0612,9.7913,0.2051,-0.3909,-0.1676
7.22,-0.0152,0.0649,9.7789,0.6905,-0.3797,0.9899
7.24,0.0425,-0.0562,9.8111,1.1839,0.0509,-1.3228
7.26,-0.0139,-0.0556,9.8807,-0.3825,0.3426,-0.9117
7.28,-0.0827,-0.1017,9.7957,-0.5486,-0.2494,-1.3102
7.3,-0.0464,-0.0066,9.7457,-0.4439,-0.3553,-0.1492
7.32,0.0207,0.0025,9.7982,-0.1452,0.9203,-0.6139
7.34,-0.0027,0.0364,9.8354,-0.0028,-0.2531,-1.2553
7.36,0.0223,-0.0177,9.8084,1.0708,0.5133,0.5167
7.38,-0.0175,-0.0032,9.7977,-1.2579,0.4518,0.721
7.4,0.0052,0.009,9.8498,0.8848,-0.0097,0.463
7.42,-0.0496,-0.0345,9.8069,-0.0601,-1.2742,-0.2038
7.44,0.0245,-0.0377,9.8099,-0.7332,1.0838,-0.548
7.46,-0.0329,0.0137,9.7936,-0.9086,0.5302,-0.2895
7.48,-0.0288,-0.0292,9.7903,-0.1901,0.1861,-0.4699
7.5,0.0581,0.0588,9.827,0.2738,0.5112,-0.3999
7.52,-0.0703,0.0209,9.7888,0.5772,1.3079,0.7891
7.54,-0.0147,0.0152,9.8186,1.1799,1.1923,0.4685
7.56,0.0234,-0.0433,9.84,-0.129,0.1792,-0.0426
7.58,0.1018,-0.0348,9.8036,-0.5199,-0.2146,1.696
7.6,0.0715,-0.0293,9.821,0.325,-0.4612,-0.0848
7.62,0.0275,-0.0381,9.7841,-0.2129,-0.7144,0.3665
7.64,-0.0121,0.0541,9.7763,-0.0999,-0.4405,0.1896
7.66,0.0314,-0.0125,9.8268,-1.2674,-0.5458,-0.934
7.68,0.0514,-0.0492,9.8596,-0.0639,-0.7314,0.9641
7.7,-0.0127,0.0109,9.7882,1.5865,0.1462,0.5005
7.72,0.0235,-0.0024,9.8034,-0.2574,-1.8351,2.5335
7.74,0.0069,0.033,9.8336,-1.0781,0.3584,0.2157
7.76,0.071,-0.0486,9.8166,-1.6893,0.1312,-0.4405
7.78,-0.004,-0.0065,9.7998,-0.8437,-0.8259,-0.5575
7.8,-0.0539,0.0199,9.8409,0.3966,-0.351,-0.3379
7.82,-0.0226,0.0485,9.8335,-0.7417,-1.0849,-0.4512
7.84,0.0199,-0.0069,9.7812,-0.1038,0.0724,-1.0625
7.86,0.0485,0.0473,9.762,1.0683,0.0745,0.7242
7.88,0.0231,-0.027,9.7645,1.0547,0.8129,0.7064
7.9,-0.0237,0.0484,9.8104,-0.4116,-0.3559,0.3855
7.92,-0.0224,-0.0127,9.7562,-0.004,-1.4413,2.193
7.94,0.0099,0.0335,9.8209,0.4878,-0.6584,0.3584
7.96,0.0671,0.0362,9.8207,0.1284,-0.1436,-0.3601
7.98,-0.0593,0.0243,9.8609,1.4055,0.4356,0.089
8.0,0.0393,0.0665,9.7546,-0.9172,0.2654,-0.6198
8.02,-0.0261,0.05,9.7536,-0.1469,-0.1757,-0.158
8.04,-0.0363,-0.0211,9.7962,0.6134,0.4569,0.8504
8.06,0.0044,0.0101,9.8349,-2.2696,-0.6539,0.817
8.08,-0.0266,0.0002,9.7987,-0.4655,0.0894,-1.7836
8.1,-0.0329,0.0241,9.8426,-0.084,-0.2862,1.2645
8.12,0.0396,-0.0125,9.7828,-1.0595,-1.0226,0.4819
8.14,0.0542,-0.0911,9.8055,0.7576,0.6657,-0.9144
8.16,-0.0054,0.0358,9.8403,0.7135,1.3358,-0.4527
8.18,0.002,0.0277,9.8222,-1.2345,0.3343,0.5982
8.2,0.0123,-0.1215,9.8135,0.5659,1.4302,2.0663
8.22,-0.0763,0.0726,9.8338,0.8999,0.0499,-0.3187
8.24,0.115,0.0413,9.8688,-1.1425,-0.6792,-2.0585
8.26,-0.0226,0.0985,9.7373,0.7344,-0.2789,0.4154
8.28,-0.0445,0.0195,9.7946,-0.0039,-0.4543,-0.414
8.3,0.0289,0.0215,9.8583,-0.0371,-0.0245,0.0188
8.32,0.057,0.0343,9.7889,-0.4652,-0.2122,0.1392
8.34,-0.0837,0.0007,9.7921,1.173,0.8348,-0.9822
8.36,0.0093,0.0132,9.7858,0.4295,0.6348,-0.2218
8.38,-0.0596,0.0066,9.785,1.1404,-0.3375,-1.3446
8.4,0.0464,0.0491,9.8325,-0.0597,-0.5146,-1.3771
8.42,0.0198,-0.0644,9.8699,0.1045,0.1991,0.2391
8.44,0.012,0.0553,9.7561,0.9089,0.457,2.0185
8.46,0.0133,0.007,9.8074,-0.0578,-0.1576,0.8708
8.48,-0.0247,-0.0219,9.8348,-0.5826,-0.5705,1.7333
8.5,-0.0378,-0.0356,9.8189,0.5045,0.4197,0.8029
8.52,-0.0139,-0.0156,9.8028,-0.3017,-1.1376,0.458
8.54,-0.0422,0.0031,9.8119,0.9758,-0.1599,0.215
8.56,-0.0397,-0.0079,9.812,-0.304,0.193,0.4151
8.58,-0.0457,0.0152,9.7918,0.2027,0.8417,-0.419
8.6,0.0114,-0.0333,9.8064,-0.0651,-0.4774,0.0163
8.62,0.0567,-0.0091,9.806,0.5835,-1.1224,0.6371
8.64,0.0093,0.0598,9.8034,0.0029,0.5451,0.6499
8.66,-0.0173,0.0142,9.7955,-0.9636,-0.5062,0.6196
8.68,0.0228,-0.0208,9.821,0.5314,0.628,0.9632
8.7,0.0754,0.0322,9.8323,0.6786,-0.2359,0.1456
8.72,0.0203,0.0264,9.7625,0.1362,-0.0345,1.4267
8.74,0.0055,-0.0534,9.7689,0.0006,0.7537,-0.8419
8.76,0.0313,-0.0392,9.8153,1.6268,1.0839,-0.3707
8.78,-0.0419,0.0155,9.8417,0.1481,0.7543,1.1496
8.8,0.0026,-0.0144,9.7956,1.9502,0.6216,-0.3187
8.82,-0.0387,-0.0261,9.7894,0.4278,-0.414,-0.2265
8.84,-0.0274,-0.0732,9.7729,-0.3534,-0.5887,1.4169
8.86,-0.0851,-0.0475,9.8036,-0.724,-0.1993,0.1006
8.88,0.0557,0.0536,9.8645,0.0275,-0.2653,-0.721
8.9,0.0317,-0.0289,9.79,0.5643,-0.5254,0.3745
8.92,-0.0329,-0.0164,9.8403,-0.5048,0.3242,-0.3579
8.94,-0.06,0.0356,9.8147,-0.0153,-0.8018,-0.2547
8.96,0.0425,-0.0014,9.7717,-1.5916,-0.2283,0.4266
8.98,-0.0153,-0.0621,9.7876,0.2539,-1.1697,0.5941
9.0,-0.0242,0.0492,9.7857,1.1033,-0.1925,-0.5279
9.02,-0.0097,-0.0506,9.8293,0.3467,2.441,-0.0072
9.04,0.0665,-0.0689,9.8459,0.5552,-0.6111,-1.0532
9.06,-0.0892,0.0145,9.8455,-0.2858,0.7538,0.0928
9.08,-0.0137,-0.0347,9.7738,0.1019,-0.7532,1.3071
9.1,0.0259,0.0657,9.7947,-0.9604,0.1094,0.5319
9.12,-0.0092,-0.0035,9.7787,-0.854,0.2688,-0.4581
9.14,0.0006,0.0084,9.7439,-0.0136,-0.3129,0.6998
9.16,0.0602,0.0189,9.8167,-0.3259,-0.4397,0.6866
9.18,-0.0331,0.0449,9.8025,0.2362,-1.2119,1.3238
9.2,-0.036,-0.0358,9.8034,-1.083,-0.1176,0.3008
9.22,-0.0506,0.0024,9.7903,1.6916,1.1896,0.216
9.24,-0.0188,0.1005,9.804,-0.4772,-0.0548,-0.3407
9.26,0.0118,0.0385,9.8084,0.5206,-0.7004,-0.995
9.28,0.0307,-0.0079,9.8356,-0.2817,-0.1745,0.4699
9.3,0.0513,-0.0123,9.83,-0.4465,0.1605,1.2669
9.32,0.0145,0.0693,9.793,0.7822,0.01,-0.6887
9.34,-0.0285,0.021,9.8077,-0.2389,1.2538,-0.5627
9.36,0.0549,-0.0351,9.8152,0.9039,-0.2132,0.0663
9.38,0.0514,0.0198,9.8352,0.4672,-1.352,-0.73
9.4,-0.0583,-0.0253,9.8337,-0.1,0.5276,1.3097
9.42,0.0346,0.0158,9.8083,0.5527,-0.3842,0.1531
9.44,-0.0127,0.0034,9.8273,-0.9987,1.0476,0.3787
9.46,-0.0419,0.0832,9.7736,-1.0098,-0.1374,-0.8309
9.48,-0.0371,0.0592,9.7668,-0.7645,-0.3023,0.0444
9.5,-0.0555,-0.0657,9.8347,0.1026,1.4096,0.503
9.52,0.0628,-0.0216,9.7842,-0.7554,0.163,-0.3503
9.54,0.0007,-0.0112,9.8765,0.7896,0.7318,-0.2405
9.56,0.0185,0.0652,9.8084,-1.7346,-0.8837,1.8561
9.58,-0.0381,0.013,9.7789,-0.5716,0.8856,-0.0432
9.6,0.03,-0.0749,9.8358,0.9996,-1.3924,1.3489
9.62,-0.0249,-0.0165,9.7485,0.0724,0.9213,0.6394
9.64,-0.0426,-0.0221,9.7673,1.6098,0.4183,1.4327
9.66,0.0545,0.0113,9.8262,0.2803,1.8878,0.6808
9.68,-0.0069,-0.0562,9.8651,-0.9004,-0.3696,0.4656
9.7,0.0199,-0.0201,9.8442,0.905,-1.4271,0.6369
9.72,0.0586,0.0022,9.8125,0.1897,-0.3136,-0.9904
9.74,-0.029,-0.0266,9.8191,-0.7744,-0.28,0.6321
9.76,-0.0031,0.0346,9.8444,-0.56,-0.0682,1.9653
9.78,-0.0394,-0.005,9.8195,-0.0638,0.3158,2.6322
9.8,-0.0057,0.016,9.7898,0.2596,-0.3827,-1.4867
9.82,0.0168,0.0107,9.841,0.8868,-0.4302,-0.3598
9.84,0.0552,0.0052,9.8081,-1.2384,-0.6136,1.3935
9.86,-0.0451,0.0175,9.8205,0.9998,-0.3598,-0.0234
9.88,0.0058,0.003,9.778,-1.0302,0.6025,-1.2968
9.9,0.0357,-0.0614,9.7788,0.3596,-1.423,0.4141
9.92,0.0053,0.0082,9.8238,0.7076,0.1257,0.1601
9.94,0.0018,-0.0512,9.8115,0.0755,0.1742,-0.2323
9.96,0.0008,-0.0037,9.7733,0.1489,-1.6701,0.4283
9.98,-0.028,0.0372,9.829,0.4409,-0.2059,-0.4591
10.0,-0.057,0.0109,9.7913,0.7852,-0.3662,-0.203
10.02,-0.0021,-0.0401,9.8366,0.5004,0.2285,1.2412
10.04,-0.045,-0.0067,9.7831,-0.8294,0.3544,-0.0139
10.06,-0.0356,0.0291,9.7945,-1.0754,0.0646,-1.88
10.08,-0.0374,-0.028,9.8511,-0.3959,0.0565,0.6336
10.1,-0.008,-0.0316,9.8218,-0.7369,0.5902,-2.3827
10.12,0.0022,-0.012,9.8407,-0.1572,-0.9458,0.7115
10.14,0.0006,0.0409,9.7696,-0.2403,0.2067,-0.8855
10.16,0.0072,0.026,9.8387,-0.0609,-0.4621,0.8779
10.18,-0.0505,-0.0313,9.787,-0.2943,-1.5193,-0.5036
10.2,0.0664,0.0177,9.8004,-0.6755,0.117,-0.3744
10.22,-0.0691,-0.0626,9.7807,1.8994,-0.8731,0.1518
10.24,0.057,-0.0002,9.792,-1.9605,-0.6503,1.1645
10.26,0.0549,0.0959,9.8361,0.7483,-0.1305,-0.1358
10.28,0.0195,0.0087,9.8255,-0.0189,2.0061,-0.4488
10.3,0.0183,-0.0452,9.8023,-0.8293,-0.1121,0.9713
10.32,0.0224,-0.0272,9.7642,0.1568,0.3115,0.519
10.34,0.0454,-0.0465,9.8599,-1.0694,-0.1607,0.8591
10.36,0.0484,0.0127,9.7644,0.6705,-0.0017,-0.4397
10.38,-0.0868,0.0087,9.802,0.2975,-0.1354,0.4283
10.4,0.0231,0.0418,9.7661,-1.2662,0.6953,-0.5643
10.42,-0.0169,0.0022,9.8163,-0.1597,0.5818,-0.6343
10.44,-0.0396,0.0002,9.7751,-0.4143,-0.2857,0.9317
10.46,0.019,-0.0101,9.7706,1.4822,0.9849,-2.1165
10.48,-0.0109,0.029,9.7858,-0.3303,0.1344,0.6308
10.5,-0.0691,0.0332,9.7985,-0.4961,0.6864,-0.7662
10.52,0.0007,0.0286,9.7898,-0.0641,1.0604,-0.4568
10.54,0.0244,-0.0405,9.7746,0.4511,0.668,-0.8329
10.56,-0.0138,0.0353,9.7358,-0.3042,-0.2118,1.0717
10.58,0.0201,-0.0254,9.8856,0.7815,-1.9399,0.6611
10.6,0.0318,0.0487,9.8705,0.3349,-0.6004,-1.5127
10.62,0.0602,0.002,9.8178,0.459,-0.6284,0.0804
10.64,0.065,0.0356,9.7873,-0.7038,1.5384,0.7744
10.66,-0.0034,0.0111,9.7918,0.7662,1.1382,-0.1627
10.68,0.024,0.0368,9.8146,-0.1792,0.7259,-1.1903
10.7,-0.001,0.0239,9.8099,0.1945,-0.7989,-0.4337
10.72,-0.0228,0.0013,9.785,1.3345,0.0828,0.7142
10.74,-0.0003,0.0438,9.8146,0.9346,1.3093,0.7467
10.76,0.0115,0.0171,9.7795,-0.5521,0.5202,-0.4097
10.78,0.0149,0.0003,9.8173,1.5277,0.8616,-0.3211
10.8,0.0738,-0.0141,9.8136,-2.063,0.9771,-0.68
10.82,-0.069,-0.0616,9.8191,-0.5429,-0.5078,1.4454
10.84,-0.0044,0.0055,9.8147,-0.0098,1.1857,0.7748
10.86,-0.048,0.0691,9.7854,-0.7452,0.8969,-0.7546
10.88,0.07,-0.0892,9.796,-0.865,-0.8782,1.3699
10.9,0.0394,0.0221,9.8123,-0.1971,1.7228,0.1322
10.92,0.0301,-0.031,9.823,-0.4006,0.4714,0.7532
10.94,0.0027,-0.005,9.8938,2.1645,0.3095,-0.0994
10.96,0.0506,0.0338,9.8177,0.2805,-0.5464,-1.1193
10.98,-0.018,0.0013,9.7684,0.5952,-0.4624,-1.2009
11.0,-0.0353,0.0201,9.7964,-0.898,-0.0229,0.1633
11.02,0.0444,0.0549,9.7934,0.3164,0.8199,0.7071
11.04,0.0368,-0.0409,9.8296,0.8308,0.1467,0.3509
11.06,0.0146,0.0165,9.832,-0.1142,-0.3258,0.3405
11.08,0.0314,0.074,9.8391,1.289,0.2493,-0.1827
11.1,0.0049,0.0117,9.8127,0.4563,0.6965,1.0393
11.12,0.1413,-0.0654,9.8191,-0.4123,1.3672,-0.0316
11.14,-0.0492,-0.0294,9.8587,0.0027,-0.0245,1.0223
11.16,0.02,-0.0724,9.8134,-2.0047,0.8125,-0.2893
11.18,0.0369,0.0583,9.8419,-0.2262,-0.4259,0.65
11.2,-0.0483,-0.0599,9.8086,0.3651,-0.1404,0.3752
11.22,-0.0351,0.081,9.7843,0.0021,0.0116,-0.826
11.24,-0.0389,0.0449,9.8421,-0.8168,-0.2623,-0.9583
11.26,-0.0411,0.002,9.8545,1.5455,1.01,-1.7232
11.28,-0.0099,0.0266,9.7821,-0.6671,-1.0283,-0.2402
11.3,-0.007,-0.0067,9.8279,-1.0472,-0.5976,-0.0902
11.32,0.0568,-0.0027,9.8503,0.3805,0.7321,0.2168
11.34,0.0055,0.0659,9.8468,0.4969,1.1734,-0.778
11.36,-0.0745,-0.0487,9.8034,0.1391,0.8867,-0.4007
11.38,-0.0098,-0.0308,9.8232,0.981,-0.1156,-0.0893
11.4,0.0557,0.0548,9.8119,-0.5591,-0.7201,0.6883
11.42,0.0424,-0.0553,9.8392,0.3217,-1.2719,0.2655
11.44,-0.0453,0.0015,9.8309,-1.1624,-0.5822,0.766
11.46,0.0351,0.0349,9.7286,-0.6134,-0.3136,0.4309
11.48,-0.0181,0.0017,9.8384,0.308,-1.4734,0.4656
11.5,0.0031,-0.0258,9.7966,-0.7047,-0.0137,0.0197
11.52,0.112,0.004,9.8379,1.415,0.1042,1.8262
11.54,0.0075,-0.0073,9.8108,0.5716,-1.4185,1.0202
11.56,0.0361,-0.01,9.7706,0.3843,-0.9026,0.1507
11.58,0.0762,0.0406,9.7493,1.1158,-0.2695,1.272
11.6,-0.005,-0.0404,9.8176,-0.9195,0.3785,0.0353
11.62,-0.0333,-0.0045,9.8005,-1.1914,0.0722,0.239
11.64,0.0018,0.0083,9.8155,-0.022,0.1488,0.8698
11.66,-0.0231,-0.0193,9.8011,1.8656,-1.6403,-0.1203
11.68,-0.0225,-0.0051,9.7565,-0.6278,0.4466,0.2048
11.7,-0.0146,-0.0268,9.7599,-0.0326,-0.4099,0.925
11.72,-0.0192,-0.0085,9.8176,0.2303,-1.5468,0.7258
11.74,-0.0438,-0.0205,9.7927,-2.0369,-0.7897,-1.2184
11.76,0.0261,0.0558,9.834,1.3786,-0.0867,-0.5036
11.78,0.0202,0.0122,9.7607,-0.3184,-1.1558,-0.0693
11.8,0.0133,-0.003,9.8524,-0.4078,0.0585,-0.4366
11.82,-0.0795,-0.0736,9.8319,0.625,-1.411,1.75
11.84,0.0388,0.0536,9.8323,-0.306,0.8453,-0.4312
11.86,-0.0004,-0.0669,9.8306,-0.7733,0.2685,0.4398
11.88,-0.0075,0.0359,9.7642,0.4102,0.6013,0.3832
11.9,-0.0248,0.0134,9.8123,-0.6171,0.9013,0.089
11.92,-0.057,-0.0184,9.7679,-0.4403,-1.0447,-1.5859
11.94,-0.0961,0.011,9.8097,1.6163,0.5773,1.2973
11.96,0.0422,0.0004,9.8148,-1.5558,-0.951,-1.367
11.98,0.0141,0.0582,9.7941,-1.5426,-1.0753,0.1855
12.0,-0.0395,-0.0877,9.8034,-0.6806,0.3587,-0.9333
12.02,-0.0197,0.0357,9.8635,-0.7876,0.0688,0.6722
12.04,0.0204,0.0038,9.7922,-0.2174,1.4341,-0.2138
12.06,-0.0006,-0.0131,9.7419,1.3665,-0.3304,0.7572
12.08,0.0162,-0.0278,9.7506,-0.2937,0.5498,-0.8798
12.1,-0.0079,-0.0711,9.7682,-1.0236,1.078,0.2636
12.12,0.0743,0.0265,9.7707,1.0586,0.483,0.752
12.14,0.0514,-0.0066,9.7873,0.582,0.3861,0.5079
12.16,0.0412,-0.0113,9.8398,0.9793,0.2994,-0.2025
12.18,0.1098,-0.0505,9.7738,0.5886,-1.5383,0.0856
12.2,-0.0194,0.0037,9.7915,0.8753,-0.5653,-2.3376
12.22,-0.0011,-0.0615,9.7697,-0.9433,-0.9869,0.0039
12.24,-0.049,0.0113,9.7992,0.4332,-0.4549,1.4866
12.26,-0.0667,-0.0368,9.8071,-0.3262,0.8687,-1.8824
12.28,0.0099,0.024,9.7932,-0.2194,-0.0025,-1.588
12.3,-0.0213,0.0225,9.8361,1.102,-0.0545,0.8695
12.32,0.0745,-0.0187,9.7325,0.5064,-1.2355,-1.5901
12.34,0.0201,-0.0105,9.8239,-0.0018,1.1211,-0.3899
12.36,-0.0104,-0.0628,9.7935,1.2197,0.2807,-0.287
12.38,-0.0459,0.0054,9.8365,0.9115,-0.2828,0.7234
12.4,-0.0718,0.0177,9.8196,-0.182,-0.0243,0.2943
12.42,-0.001,-0.0825,9.8447,-0.8922,-1.0942,1.5353
12.44,-0.0053,0.0353,9.7553,0.1602,0.7801,-0.1891
12.46,0.0137,0.0039,9.8244,0.7248,0.1603,-0.2712
12.48,0.0279,-0.0022,9.8072,-0.1228,0.2973,-1.3312
12.5,-0.0116,-0.0293,9.8142,-0.4637,-0.2167,-0.2492
12.52,0.0059,0.0189,9.7923,0.5016,-0.6251,0.7072
12.54,0.0025,-0.0487,9.8217,-0.852,-0.1103,0.7178
12.56,-0.0029,0.0239,9.8269,-0.0849,-0.2331,0.9847
12.58,-0.0133,0.0221,9.8057,-0.9602,0.636,-0.5325
12.6,-0.0034,-0.0044,9.8066,0.7802,0.103,1.5688
12.62,0.0397,0.0313,9.8273,-0.8419,-1.3816,0.9292
12.64,0.0976,-0.0221,9.8336,-1.1051,-0.5575,-0.754
12.66,0.0516,0.045,9.8328,0.9987,-0.9239,-0.4318
12.68,0.0293,0.0032,9.7993,-1.083,-0.3411,-0.9876
12.7,-0.0563,0.0183,9.8547,0.8905,-0.1844,-0.4426
12.72,-0.028,0.0484,9.8169,1.4015,0.6793,0.1508
12.74,-0.0424,0.0678,9.7684,-0.4815,0.3081,-1.2541
12.76,0.0352,0.0337,9.8381,-1.3712,0.066,0.0472
12.78,0.0575,0.0223,9.7954,0.6006,-0.0467,-0.9728
12.8,-0.0808,0.019,9.8242,-0.0614,-0.5034,-1.242
12.82,0.0767,0.0615,9.8518,-0.356,1.1279,-0.1244
12.84,0.0636,-0.0212,9.8313,-0.6633,0.7576,1.7833
12.86,0.0745,0.0046,9.8404,-1.4807,-0.7983,0.7834
12.88,0.0279,0.0634,9.8886,0.0339,-1.6774,0.1877
12.9,-0.026,0.0329,9.8705,-0.6822,-0.1779,-0.4967
12.92,-0.0265,-0.0459,9.8159,-0.6738,0.129,-0.0966
12.94,0.0257,0.0298,9.8277,0.5664,-0.5499,0.081
12.96,-0.0094,0.0384,9.7958,0.103,1.7895,0.2831
12.98,-0.0454,0.0565,9.7996,0.702,0.828,-0.42
13.0,-0.0105,0.0781,9.8353,-0.064,1.4211,-0.319
13.02,-0.0095,-0.0112,9.7554,-0.8471,1.9946,1.3201
13.04,0.027,-0.022,9.8135,1.3964,-0.0492,-0.9741
13.06,-0.0682,-0.0586,9.8393,0.8715,-0.5656,0.4277
13.08,0.0197,-0.052,9.825,-0.0329,0.7301,1.2461
13.1,-0.062,0.0174,9.8661,-0.1791,-0.2878,0.1439
13.12,0.0023,-0.078,9.768,0.4199,-0.0916,0.263
13.14,-0.0068,0.0289,9.7965,1.5537,0.228,0.114
13.16,0.0115,-0.0293,9.8401,0.109,1.4506,-0.5243
13.18,0.0359,-0.0151,9.8865,1.2259,0.9275,-0.0578
13.2,0.0071,0.012,9.8192,-0.3457,-0.8946,0.2768
13.22,-0.0194,-0.0196,9.7718,-1.291,0.465,0.1526
13.24,-0.0467,-0.0231,9.8277,-0.01,1.2071,-1.0041
13.26,0.0188,-0.0211,9.8036,-0.5574,0.322,-0.1064
13.28,-0.0017,-0.0584,9.7892,-0.0701,0.3734,-2.0466
13.3,0.0261,-0.0582,9.8279,0.1986,2.3853,0.827
13.32,-0.0184,0.0383,9.7587,0.1824,-1.0225,0.222
13.34,-0.0509,-0.0449,9.8062,-1.08,-0.1811,-0.25
13.36,0.0037,-0.008,9.8554,-0.0488,0.0585,0.1994
13.38,-0.0052,0.0299,9.8251,0.0612,0.2852,-0.3447
13.4,0.036,0.0051,9.7978,-0.055,0.2651,-0.0025
13.42,0.0314,0.0167,9.8416,-0.0428,-0.9108,-0.3926
