time_s,Ax,Ay,Az,Gx,Gy,Gz
0.0,-0.0067,-0.0065,9.7897,-0.7172,-0.062,-0.051
0.02,-0.0433,0.0046,9.8336,0.6302,1.0957,-0.702
0.04,-0.0105,-0.0414,9.7809,-1.4596,-0.3245,-0.7007
0.06,0.014,0.0441,9.7785,0.4687,-0.9739,-0.9102
0.08,0.0612,0.0391,9.8109,-1.1925,0.5549,-0.9974
0.1,0.0051,0.065,9.8426,0.7063,0.4746,0.1797
0.12,-0.0358,-0.0809,9.8472,0.7257,-1.5019,-1.1903
0.14,-0.0709,0.0252,9.8196,-0.7853,0.5009,0.0099
0.16,0.0138,-0.0027,9.8611,1.2621,-0.0893,0.7028
0.18,-0.0154,-0.0036,9.8186,0.8329,0.4549,0.2607
0.2,0.0114,0.0049,9.828,-0.9268,0.5605,0.0417
0.22,-0.0077,0.0584,9.7807,0.927,-0.3036,0.9571
0.24,-0.0097,0.0297,9.7868,-0.5724,-0.0546,0.394
0.26,0.0406,0.0088,9.7856,0.1113,-0.5696,0.2509
0.28,0.0243,0.024,9.8579,-2.1506,-0.9687,-0.684
0.3,0.0138,-0.0009,9.8,-0.1277,-1.3832,-0.0934
0.32,0.0054,-0.0352,9.8187,-0.124,-0.6338,-0.1563
0.34,0.0111,-0.0559,9.8211,-0.5173,-0.0047,0.3273
0.36,-0.0086,-0.0541,9.8174,0.7317,-0.5176,-1.5965
0.38,0.0645,0.0026,9.7638,-0.6584,-0.4188,0.8561
0.4,-0.0443,0.0056,9.7686,-0.565,-0.3483,1.0529
0.42,0.0125,0.0616,9.794,0.575,0.8862,-0.3248
0.44,0.0313,-0.0167,9.8137,0.7989,-0.2652,0.1005
0.46,0.0221,0.0613,9.816,1.7628,0.9597,0.0264
0.48,-0.0306,-0.0735,9.8138,-0.0007,0.6513,-1.5392
0.5,-0.0138,-0.0267,9.7404,0.3811,0.61,-0.7549
0.52,-0.004,0.0631,9.7687,-0.3869,0.2301,0.9763
0.54,0.0046,0.0453,9.811,-0.8952,-0.2469,0.54
0.56,0.0079,0.0556,9.7916,-0.614,-0.2155,-0.6148
0.58,0.0103,-0.0424,9.7738,-0.0833,0.5276,0.1446
0.6,0.0184,0.0313,9.775,0.336,-0.9567,0.1948
0.62,-0.0661,0.0074,9.7789,-0.3606,0.5047,-0.5477
0.64,0.0005,0.0067,9.7724,-0.5093,-0.3395,1.4582
0.66,0.0008,-0.0279,9.8101,-0.3864,-0.8621,0.9935
0.68,0.0294,0.0065,9.7909,-1.4647,0.7699,0.9542
0.7,0.0329,0.0088,9.8775,-0.1308,0.0883,-1.0395
0.72,0.0444,-0.0102,9.8056,1.4561,0.611,1.2858
0.74,0.0306,0.022,9.8221,0.8609,0.0137,-0.9382
0.76,-0.0186,-0.0165,9.7878,0.5714,-0.293,-0.0595
0.78,0.0871,-0.025,9.8126,-0.2029,0.0486,0.0396
0.8,-0.007,-0.0037,9.8334,0.5087,0.1705,-0.3948
0.82,0.0442,-0.0375,9.8167,-0.2593,0.2754,-1.6031
0.84,0.0381,-0.0143,9.8188,0.0887,-0.7001,0.2843
0.86,-0.0571,-0.0021,9.7971,0.4139,0.2139,0.4731
0.88,0.0155,-0.0702,9.8102,2.4133,-0.7993,0.7577
0.9,-0.0951,0.0166,9.7897,0.7895,0.4725,-0.9792
0.92,0.0064,0.0077,9.8266,-0.3344,-0.387,-0.1278
0.94,0.0166,0.0164,9.8098,0.9593,-1.0949,0.9562
0.96,-0.0285,-0.0573,9.8256,-2.0954,1.3438,0.7627
0.98,0.0148,-0.0316,9.7964,-0.9058,-0.8159,0.4972
1.0,-0.0228,-0.0121,9.8544,0.4055,-0.11,0.5284
1.02,-0.067,-0.0896,9.812,-0.7833,0.2193,-0.2644
1.04,-0.0264,-0.0345,9.7933,1.6517,-1.2609,-0.3267
1.06,0.0456,0.0284,9.731,0.0821,-0.4295,0.5888
1.08,-0.0012,0.036,9.7915,-0.7037,-0.9473,-0.4212
1.1,-0.1521,-0.0328,9.8268,1.1311,-0.9961,-1.0667
1.12,-0.0341,-0.0127,9.7738,-0.0624,0.1343,0.0476
1.14,0.0056,0.0284,9.8175,0.1194,2.0167,-0.4916
1.16,-0.0343,0.0496,9.8013,-0.1695,-0.5521,-0.189
1.18,-0.0505,-0.0212,9.8057,-0.2518,0.9802,0.9521
1.2,0.0275,-0.0004,9.7598,-1.1453,1.2775,0.7037
1.22,0.0198,0.0301,9.8035,-0.8658,0.9626,-0.0373
1.24,-0.046,-0.0421,9.8125,-0.3547,-0.5401,0.4397
1.26,-0.0405,-0.017,9.7916,-0.5973,-0.9822,0.0193
1.28,-0.0807,0.1177,9.7957,0.2291,-0.0425,0.4174
1.3,-0.1091,-0.0103,9.8474,-0.521,0.179,-0.858
1.32,0.034,-0.0192,9.8199,0.1965,-1.7472,-0.7778
1.34,0.0087,-0.12,9.8472,0.7429,0.2224,-1.339
1.36,-0.0489,-0.0009,9.8585,0.7916,0.2145,-0.0301
1.38,-0.0589,-0.0413,9.8135,0.5204,0.3113,-0.4702
1.4,-0.026,-0.0107,9.7669,1.4781,1.3505,0.7035
1.42,0.0024,-0.0072,9.8166,0.2446,1.7153,-0.4572
1.44,-0.0033,-0.0508,9.8446,-1.4469,0.5407,-0.3503
1.46,-0.0423,0.007,9.8089,0.2638,-1.5959,-0.7749
1.48,0.0156,0.0107,9.8221,-0.7567,-0.7594,-0.2558
1.5,0.0259,0.0089,9.8472,0.0617,1.0273,0.0465
1.52,-0.0734,0.0242,9.8188,-0.0279,-1.4985,1.1992
1.54,-0.0416,0.0461,9.7985,0.0875,0.9426,-0.7851
1.56,0.0063,0.0291,9.8149,0.8918,0.5173,0.7046
1.58,-0.0226,-0.0007,9.8399,-0.7142,-0.7653,-1.2234
1.6,-0.0309,-0.047,9.84,-0.9048,-0.9845,1.249
1.62,-0.0023,-0.0448,9.7952,1.23,2.1863,0.2124
1.64,0.0069,-0.0779,9.799,1.6853,0.6366,0.4568
1.66,0.0131,-0.0096,9.8421,-0.9838,0.2529,-1.4082
1.68,0.0517,0.0111,9.7616,0.7557,0.3666,0.6264
1.7,0.0253,-0.0508,9.8093,0.9585,-0.434,1.1555
1.72,-0.0029,-0.0013,9.8176,-0.7289,0.6628,-0.1001
1.74,-0.0199,-0.0337,9.8377,0.347,0.4568,0.6628
1.76,0.0423,-0.0044,9.7956,0.7409,0.7391,0.2054
1.78,0.09,-0.0345,9.7582,-1.1583,-0.6622,0.6098
1.8,-0.0167,-0.0504,9.8612,0.0313,-0.0661,0.3628
1.82,-0.0534,-0.0184,9.8033,0.8247,-0.7831,2.5098
1.84,-0.0132,0.0112,9.8002,0.1699,-0.2933,-0.8907
1.86,0.0197,0.013,9.8246,-0.5354,0.3709,0.559
1.88,-0.0263,-0.001,9.8336,0.2032,-0.1123,0.6794
1.9,0.0844,-0.0426,9.7824,0.844,0.8931,-0.6228
1.92,-0.1056,-0.0246,9.8131,0.1307,1.4283,1.2787
1.94,-0.0215,-0.0231,9.8364,-1.6639,-0.1185,0.6408
1.96,0.0694,0.0588,9.8064,1.2006,0.4748,-0.3716
1.98,0.0443,-0.0267,9.8259,0.0257,-0.2464,1.4334
2.0,-0.032,-0.032,9.8048,0.0012,-1.935,0.4954
2.02,0.0021,0.0156,9.8004,-1.6349,-1.4186,-0.6514
2.04,0.0262,-0.0117,9.7968,0.5871,0.8672,-0.5496
2.06,0.0314,0.0096,9.7708,-0.714,1.2486,-0.4462
2.08,-0.0023,0.0104,9.8019,0.3493,-0.9942,-0.0314
2.1,-0.0012,0.0112,9.827,0.0918,-0.6318,0.5238
2.12,-0.0188,-0.0076,9.731,-0.2615,-0.8443,-0.2984
2.14,-0.053,-0.0049,9.8259,0.9588,-0.2825,1.3448
2.16,0.0637,0.0091,9.8548,1.2454,-0.5496,0.4409
2.18,-0.0663,0.0444,9.8912,1.2288,-0.0907,-0.0693
2.2,0.0063,0.0026,9.8057,-0.6621,0.0604,-0.2887
2.22,-0.0355,-0.0097,9.8834,0.9326,1.1612,-0.8581
2.24,-0.0255,0.0134,9.8176,0.0494,1.1543,-0.557
2.26,-0.0089,0.017,9.7434,0.5803,-0.2102,0.4683
2.28,0.0247,-0.0461,9.8489,-0.908,0.2114,0.3242
2.3,-0.0019,0.0288,9.8024,-0.3967,0.0766,0.5195
2.32,-0.0447,-0.0578,9.8146,-0.2817,-0.6095,0.8475
2.34,-0.1005,0.0072,9.8065,-1.1713,1.2485,-0.4361
2.36,-0.0551,-0.0016,9.8323,0.3259,1.6028,0.8694
2.38,-0.0035,0.0434,9.8081,0.6053,-0.4611,0.5323
2.4,-0.0438,0.0008,9.7818,0.0524,0.2426,-0.5598
2.42,-0.0147,0.0485,9.8135,-0.1711,-0.1461,0.5451
2.44,0.1015,-0.053,9.7882,-0.2456,0.5597,-0.0089
2.46,0.0673,-0.0203,9.8033,-1.6545,-1.4923,0.4109
2.48,-0.0173,-0.0436,9.8323,-0.3289,-0.7154,0.3566
2.5,0.0137,-0.0793,9.791,-0.1032,-0.1301,1.5711
2.52,0.0527,0.0603,9.768,-0.8058,0.7279,-1.5011
2.54,-0.032,0.043,9.8386,0.0605,-0.0639,0.7965
2.56,-0.0167,0.0297,9.7536,0.4342,0.4083,-1.1916
2.58,0.0476,0.0446,9.8242,0.4439,-1.3995,0.0271
2.6,0.0312,-0.0919,9.816,0.0417,-0.9556,-0.5229
2.62,-0.047,-0.0449,9.8051,0.5087,0.3943,0.9614
2.64,-0.017,-0.0004,9.8156,0.3476,-0.7029,1.8889
2.66,-0.0168,0.043,9.8376,-0.3323,-0.6835,0.2925
2.68,-0.0053,-0.0131,9.8079,-0.3163,1.0473,0.949
2.7,0.0041,-0.0071,9.7738,-0.1028,-0.1178,0.8966
2.72,-0.0134,0.0397,9.822,-0.0097,-0.1135,0.1687
2.74,-0.0453,-0.0027,9.8335,-0.116,-1.1529,-1.7775
2.76,-0.032,0.0046,9.813,-0.0853,-0.6489,0.9636
2.78,0.0065,0.0133,9.8152,0.2652,0.518,0.8803
2.8,0.0241,0.0026,9.8004,0.3238,-0.858,-0.4817
2.82,-0.0496,0.0052,9.7981,0.0855,-0.4713,-1.2449
2.84,0.0072,-0.0244,9.8401,0.2189,0.0865,0.5139
2.86,-0.0203,-0.0041,9.8415,-0.3203,0.4571,-0.8583
2.88,0.0051,0.0747,9.8793,0.3171,0.1298,-0.2841
2.9,-0.0247,-0.0305,9.7885,0.4535,0.2275,-0.0358
2.92,0.0925,0.052,9.8255,0.0902,0.7164,-0.7209
2.94,-0.0129,-0.0115,9.8441,-0.1962,0.1373,0.0209
2.96,-0.0334,0.0263,9.7658,-1.228,-1.0377,0.6175
2.98,0.0026,-0.024,9.7518,-2.4615,1.2385,-0.665
3.0,0.1048,0.0049,9.8556,1.1586,0.1527,0.6022
3.02,0.0185,0.0661,9.8351,-0.4634,0.0432,1.5051
3.04,0.0701,0.0087,9.8814,-0.2922,0.6962,0.5081
3.06,-0.0161,-0.0233,9.8479,-0.0992,-0.0072,0.6219
3.08,-0.0083,-0.0132,9.819,1.3797,0.0553,0.0057
3.1,0.0626,0.0169,9.7851,0.4249,0.6965,-0.9183
3.12,0.0119,-0.0475,9.8062,0.8805,0.8991,-0.1728
3.14,-0.0014,0.0285,9.8554,0.7576,1.3855,0.3248
3.16,-0.0208,0.023,9.7815,0.3809,-0.3632,-0.4712
3.18,0.028,-0.045,9.8114,0.6709,1.2626,-0.3537
3.2,-0.0306,0.0689,9.7534,-0.1411,-0.2698,-0.0089
3.22,-0.054,0.094,9.8527,-0.4475,0.3824,-0.3067
3.24,0.0014,-0.0684,9.8639,-0.5555,-1.5448,0.0822
3.26,0.0105,0.003,9.8103,0.5066,-0.2495,-0.7859
3.28,0.0488,-0.0473,9.8112,0.1778,-0.4136,0.7501
3.3,-0.0004,0.0091,9.8246,-1.0468,0.8763,-0.0953
3.32,-0.0051,-0.0678,9.8271,-0.6285,0.5096,1.1488
3.34,0.0237,0.029,9.7914,-0.8994,-0.7298,0.4477
3.36,-0.0041,0.0449,9.8109,0.7813,-0.0945,-1.6267
3.38,0.0048,-0.0432,9.833,0.569,1.1568,0.6846
3.4,-0.0178,0.0186,9.8277,-1.0071,-0.1201,0.4167
3.42,0.0218,0.0899,9.8392,0.79,-0.6911,-0.3102
3.44,0.0296,0.0346,9.7997,0.3964,-0.5504,-0.1212
3.46,-0.0463,-0.0547,9.7828,-0.4478,0.2859,0.7255
3.48,-0.0246,0.0195,9.8385,-0.0492,-0.2223,0.3028
3.5,-0.0114,-0.0176,9.8324,-0.1891,1.2896,1.1913
3.52,-0.0153,0.015,9.7476,0.6889,1.5017,-0.3479
3.54,0.0013,0.0387,9.7768,0.7024,-0.0872,1.5275
3.56,0.0026,0.0431,9.818,0.3193,-0.8569,0.2106
3.58,0.0185,0.0225,9.8165,0.1073,0.1413,0.4819
3.6,0.0185,0.03,9.7947,0.4888,-0.5338,-1.0707
3.62,-0.0157,0.0154,9.8008,0.2004,-0.7858,0.5349
3.64,-0.0233,-0.0153,9.7988,-0.1322,1.2141,1.3278
3.66,0.0318,-0.0111,9.8243,0.9282,0.1125,-0.0618
3.68,-0.0219,-0.047,9.8016,0.4718,-0.4495,-0.0093
3.7,-0.0154,-0.0075,9.853,-0.7906,0.24,-0.3632
3.72,-0.0473,0.0616,9.792,0.6811,0.6773,-1.0088
3.74,0.0357,0.0278,9.7921,0.1491,0.2363,-0.4618
3.76,-0.0128,-0.0345,9.8371,-0.6511,-0.4204,1.4086
3.78,0.0081,0.0372,9.8217,0.4203,0.7191,-0.7618
3.8,-0.0131,0.0374,9.8195,0.6986,0.3151,0.4708
3.82,0.0136,-0.0027,9.8331,0.8244,-1.2089,-0.8876
3.84,0.0136,0.0258,9.8316,-0.3827,1.4879,0.0943
3.86,0.0038,-0.0862,9.8162,-0.9749,0.2879,-0.3944
3.88,0.0245,0.0117,9.8189,-0.2494,1.1912,-0.0976
3.9,-0.0457,0.0395,9.8049,-0.822,-0.7166,0.3814
3.92,0.034,-0.0759,9.8251,1.2209,-1.2017,0.2313
3.94,0.0395,0.0401,9.7892,-1.1355,-1.672,0.1273
3.96,-0.0481,-0.0272,9.8809,0.4538,-1.9506,0.4536
3.98,-0.0147,-0.0087,9.7563,0.7661,-0.2853,-1.1427
4.0,-0.0034,0.0119,9.8687,-1.2011,-0.6302,-0.6186
4.02,-0.034,0.0059,9.7824,0.8376,0.3267,-1.2411
4.04,-0.0277,0.0361,9.8583,1.5117,0.69,0.0441
4.06,-0.0314,0.0381,9.8491,0.2951,-1.29,-0.4413
4.08,-0.0339,0.0032,9.8255,-0.1656,1.3808,-0.8279
4.1,-0.0212,0.0009,9.8381,-0.5558,-0.2293,0.1831
4.12,-0.0311,0.024,9.8121,1.9592,-0.5786,0.3455
4.14,0.0101,0.0373,9.7628,1.0996,-0.04,0.8018
4.16,0.0196,-0.0328,9.7602,1.0968,-0.3289,0.9272
4.18,0.0257,-0.008,9.7868,0.469,1.6935,0.2609
4.2,0.0009,0.0718,9.8245,0.372,-0.1775,0.1015
4.22,-0.0169,0.0158,9.7821,-0.0126,0.5056,0.5798
4.24,-0.0045,0.0216,9.8307,0.1087,2.6952,1.1574
4.26,-0.0025,0.0242,9.8446,0.6301,-0.0008,0.2239
4.28,-0.0809,0.0387,9.8233,-0.1486,0.0632,1.0288
4.3,-0.009,-0.0242,9.7858,0.5179,0.6553,0.2136
4.32,0.0298,0.0697,9.7886,1.2585,0.4065,0.1757
4.34,0.0813,0.0164,9.8397,0.2651,-1.3337,2.0297
4.36,0.0183,0.072,9.805,-0.8989,1.0465,1.268
4.38,-0.0179,-0.0469,9.8213,-0.8344,-0.4814,0.4243
4.4,-0.0351,0.0133,9.7802,-0.615,-0.2575,-0.0369
4.42,0.0288,0.0227,9.8004,1.0118,-2.1128,0.6498
4.44,0.0274,-0.0121,9.7938,-1.3952,-0.3482,0.4432
4.46,0.0124,-0.0315,9.7889,-0.5463,-0.9826,0.075
4.48,-0.0094,-0.0113,9.8644,-1.1192,-0.413,-0.7995
4.5,0.0608,0.0234,9.8665,0.8634,-0.2449,0.67
4.52,-0.0212,0.0046,9.8344,0.2068,-1.5186,1.3948
4.54,-0.0119,0.0029,9.8342,-0.5613,1.0627,-0.2521
4.56,0.0276,0.0024,9.799,0.0094,-1.0978,0.471
4.58,-0.0185,0.0016,9.8302,-0.7162,2.121,-0.1088
4.6,-0.042,0.111,9.8309,-0.6191,0.0515,0.6451
4.62,0.0187,0.0401,9.8211,-0.497,0.277,0.8751
4.64,-0.0142,0.0255,9.8161,0.3326,-1.2372,-0.7526
4.66,-0.0089,0.0309,9.7568,0.3313,0.2747,-0.1919
4.68,-0.0486,0.061,9.8581,-1.1556,0.8508,-1.1346
4.7,0.006,-0.0543,9.8002,-1.0997,-0.5945,-0.4023
4.72,0.0049,0.0301,9.8654,-0.2037,0.12,0.2889
4.74,-0.0007,-0.0144,9.8325,-0.2006,0.3742,0.1214
4.76,-0.0246,0.0297,9.8276,-1.4125,0.0586,-1.8846
4.78,-0.0224,0.0295,9.8217,-0.2041,-0.3111,0.2693
4.8,0.0648,0.0425,9.8059,1.1698,-0.4375,0.0538
4.82,-0.0352,-0.034,9.8346,-0.583,-0.0308,1.6009
4.84,-0.0873,0.0049,9.8198,-0.1097,-0.1074,0.7118
4.86,0.0408,-0.0463,9.8107,-0.5896,0.5868,-0.6904
4.88,-0.0064,0.0476,9.8643,1.3667,0.2389,0.3512
4.9,0.0643,-0.0146,9.8348,0.4909,0.7188,0.7065
4.92,-0.0257,-0.0363,9.7856,-0.9083,0.373,-0.371
4.94,-0.0347,0.0019,9.7708,-0.7287,-0.9642,1.1119
4.96,-0.037,0.0718,9.7887,-0.0227,0.0661,1.2321
4.98,0.05,-0.0398,9.7705,1.4187,0.1296,0.6187
5.0,0.0494,0.0197,9.8549,-0.2215,-1.0051,1.2426
5.02,0.0045,-0.0092,9.7847,-0.7782,0.6343,0.8738
5.04,-0.0096,0.0054,9.7785,0.2257,0.5972,-0.381
5.06,0.0652,0.0123,9.8139,-1.0469,-0.2029,-1.2544
5.08,-0.0117,0.0307,9.7877,0.0687,0.479,-0.9163
5.1,0.0918,-0.0224,9.8084,1.1125,0.6857,0.5306
5.12,-0.0567,-0.0448,9.822,1.0188,-0.5936,1.4955
5.14,0.0181,0.0222,9.8611,-0.6904,-0.9028,-1.7786
5.16,0.0504,-0.0036,9.7859,0.2174,0.7777,1.1909
5.18,0.0022,-0.0101,9.7902,-0.0864,1.5057,-0.7404
5.2,-0.0133,0.0004,9.8149,0.3761,-0.2584,0.9856
5.22,-0.0143,0.0174,9.8816,0.7633,0.5423,-1.1714
5.24,0.0145,-0.0367,9.8639,1.3277,0.2025,0.0923
5.26,0.0076,0.0764,9.7644,-0.8779,0.0881,0.0272
5.28,-0.0386,-0.0191,9.7884,-0.8971,0.3021,0.1863
5.3,0.0482,-0.0,9.8155,-0.6426,0.8222,1.117
5.32,0.0059,0.0333,9.8186,-0.5928,-0.7754,-0.4164
5.34,-0.0493,0.0325,9.8556,1.3116,1.098,0.3334
5.36,-0.0479,0.042,9.8122,0.124,-0.3037,0.0336
5.38,-0.0637,0.0275,9.7862,0.9667,1.0915,-0.8874
5.4,-0.0019,-0.017,9.7854,1.6651,0.0774,-0.7174
5.42,-0.0552,-0.0168,9.8522,0.6006,0.342,-0.7932
5.44,-0.0081,0.0094,9.8318,0.0432,0.1422,0.1199
5.46,0.1007,-0.0333,9.8249,-0.491,-1.7091,0.8574
5.48,-0.0504,0.0439,9.7931,-2.2514,-0.9739,-0.6221
5.5,-0.0819,-0.075,9.7969,0.3127,0.9321,1.6251
5.52,-0.0074,-0.0091,9.8114,1.0874,-0.813,0.1522
5.54,-0.0218,0.0049,9.8015,-0.1583,-0.1942,0.8269
5.56,-0.062,0.0362,9.8259,0.883,-0.1858,1.1315
5.58,-0.0432,0.0251,9.8764,1.0847,-0.8786,-0.0209
5.6,0.0864,-0.0778,9.8165,-0.1772,-1.3295,0.4045
5.62,0.0481,-0.0322,9.8551,-0.3318,0.6472,-0.0184
5.64,-0.0335,-0.0315,9.7379,-2.0997,0.248,0.0697
5.66,0.0265,-0.0044,9.8042,0.5792,2.1228,1.2191
5.68,-0.0359,0.0342,9.8095,0.2575,0.2269,0.7478
5.7,0.042,-0.0108,9.7694,-0.4004,0.6934,1.1755
5.72,0.0715,0.0234,9.8483,-0.9637,-0.0107,0.6529
5.74,-0.0446,-0.0228,9.8517,-1.1019,-0.6547,-0.5645
5.76,0.0742,-0.0156,9.8136,-0.8195,-0.4683,-0.3193
5.78,-0.0073,0.0049,9.8084,-0.3677,1.3012,0.8359
5.8,0.0599,-0.0786,9.8148,-0.0922,0.3271,1.1364
5.82,0.0773,-0.0463,9.8149,0.2888,-0.6255,-0.3476
5.84,-0.0012,-0.0673,9.7814,-1.2526,0.6275,-1.0132
5.86,-0.0461,-0.0047,9.8479,-0.8885,-0.2931,-1.6638
5.88,-0.0482,0.0319,9.837,0.2101,0.6517,0.3265
5.9,0.0137,0.044,9.7951,1.2212,0.9309,1.0092
5.92,-0.0523,0.0107,9.8052,0.1413,-0.0401,-1.3445
5.94,0.0303,-0.0646,9.7073,0.2147,-0.1954,1.2628
5.96,0.0629,0.0837,9.7745,1.4789,-0.3481,1.0083
5.98,-0.0156,0.0288,9.8127,1.3675,-1.4681,1.1262
6.0,0.0546,0.0156,9.8319,-1.0395,1.4511,-0.3225
6.02,-0.0615,-0.0292,9.8296,-0.2177,-0.2472,-0.2182
6.04,0.0374,-0.0043,9.8472,-0.803,-0.5814,-0.0591
6.06,0.0609,0.0211,9.8254,-0.0668,-1.564,-0.2006
6.08,-0.0536,0.0001,9.8116,-0.7942,0.3914,0.4142
6.1,0.0591,0.0455,9.7839,-0.6076,0.1759,-0.3689
6.12,0.0406,-0.0391,9.7879,-0.8152,1.4293,-0.7547
6.14,0.0126,0.0241,9.8323,0.1793,0.4242,-0.6455
6.16,-0.0314,-0.0104,9.7629,-0.202,0.7399,-0.9095
6.18,0.0039,-0.0523,9.8503,-0.4972,0.0992,0.4227
6.2,0.0504,0.0544,9.7723,1.2986,-0.791,0.3732
6.22,-0.0049,-0.0733,9.8158,-0.262,0.4609,0.0918
6.24,0.0124,0.0065,9.8039,-0.757,0.1894,0.708
6.26,0.0586,-0.0622,9.7973,1.3944,-0.0424,-0.2198
6.28,-0.0758,0.0101,9.8675,-0.3207,-0.0617,0.0326
6.3,-0.0408,-0.0169,9.8249,0.1329,-0.3173,-0.2223
6.32,-0.104,0.0405,9.8279,-0.3637,0.0287,-0.0416
6.34,-0.0258,0.0313,9.7629,0.0546,1.1424,-0.2641
6.36,-0.0167,-0.0021,9.8414,-0.6905,-0.8789,0.287
6.38,0.0305,0.0321,9.7594,0.568,-0.475,-0.3031
6.4,-0.0293,-0.0168,9.7801,-0.2181,1.97,-0.925
6.42,0.0115,0.0828,9.8105,0.2047,0.7538,-0.1144
6.44,0.0279,0.0477,9.8322,1.7033,-0.0274,1.1638
6.46,-0.0345,0.0322,9.8109,-0.2916,0.7118,-0.3166
6.48,0.009,0.0451,9.7767,-0.6683,0.9229,-0.0899
6.5,0.0023,0.0293,9.8598,0.7916,-1.4589,0.2079
6.52,0.0483,0.0076,9.8157,0.842,0.8179,0.469
6.54,0.0096,0.0344,9.8291,0.9776,0.3068,0.8363
6.56,-0.0016,-0.0129,9.8469,0.6567,0.408,0.8395
6.58,-0.0129,0.0254,9.8539,0.7886,0.8893,0.2305
6.6,-0.0599,0.0083,9.8712,-0.9631,0.1637,1.401
6.62,0.0185,-0.0315,9.7686,0.6108,-0.5481,0.1895
6.64,-0.0699,-0.0725,9.813,0.1521,1.0401,-0.4781
6.66,-0.0331,-0.0181,9.8481,-0.0176,-1.0606,1.1962
6.68,0.0075,0.0097,9.8552,-0.2178,0.4896,0.5965
6.7,-0.0092,-0.0441,9.8292,-0.2954,0.339,-0.1518
6.72,0.0131,0.0012,9.7993,-0.3692,-1.4453,-1.0912
6.74,0.0168,-0.0202,9.8312,0.204,0.6908,-0.0618
6.76,-0.0595,-0.0253,9.7987,-0.0253,1.1798,0.5353
6.78,-0.0182,-0.0067,9.8087,2.2163,-0.4559,-0.1465
6.8,0.0205,0.0228,9.758,-0.2003,-1.1055,-0.4136
6.82,0.0026,-0.0301,9.798,-0.2031,-0.2535,-0.7808
6.84,-0.0324,-0.0453,9.8455,-0.7405,-0.3719,-0.9598
6.86,0.0606,0.0183,9.7965,0.2392,0.5507,0.4287
6.88,0.0088,-0.0588,9.8326,0.5284,0.3648,-0.0106
6.9,-0.0495,0.0447,9.8085,-0.5232,-0.9297,-0.2939
6.92,0.0557,-0.0773,9.8299,1.6879,0.4558,1.3925
6.94,-0.0943,0.0445,9.8306,0.5363,-0.4232,-0.1561
6.96,-0.0016,-0.0696,9.7791,-1.1459,0.4173,-0.489
6.98,-0.0181,0.1085,9.8104,0.2108,-0.738,0.1427
7.0,-0.024,0.0242,9.8002,-0.35,-1.0323,1.2435
7.02,0.0156,-0.0337,9.8754,0.1959,-0.4177,-0.179
7.04,0.0097,0.0018,9.7907,0.1137,-0.2245,-0.4528
7.06,-0.051,-0.0081,9.796,0.1791,-0.0188,0.8753
7.08,-0.0056,-0.0064,9.8273,-1.0207,-1.0986,-0.1302
7.1,0.0022,-0.0485,9.8136,0.7038,-0.1874,-0.0898
7.12,0.0041,0.0118,9.819,-0.234,-0.037,0.3425
7.14,-0.0738,-0.0761,9.7839,-1.3322,0.1312,-1.1245
7.16,-0.0468,0.0309,9.8121,-0.947,0.1802,1.2535
7.18,0.0501,0.0174,9.8584,-1.2145,-0.2584,0.4415
7.2,0.0206,0.009,9.8033,-0.1446,0.0034,0.0813
7.22,0.0188,0.0136,9.8358,-0.3029,1.8069,-1.0582
7.24,0.0102,0.0387,9.7679,0.0913,-0.9621,-0.6494
7.26,0.0543,-0.0038,9.8289,0.6949,0.1707,0.9117
7.28,0.0756,0.0702,9.8161,0.1997,0.1526,-1.6304
7.3,0.0134,-0.0088,9.8642,0.9619,0.1553,1.2409
7.32,0.0365,0.0542,9.7954,0.277,0.7945,0.4716
7.34,0.0317,0.0137,9.8304,0.1548,0.9327,-1.1616
7.36,-0.0518,0.0224,9.8379,-0.2375,-0.7708,-0.8387
7.38,0.0395,-0.0238,9.7894,0.0766,0.9725,0.934
7.4,-0.0245,0.0317,9.8118,0.2577,-0.8681,1.0631
7.42,-0.0181,0.0096,9.8264,0.475,-1.0366,0.6783
7.44,-0.0215,-0.036,9.8431,-0.1453,0.574,0.6928
7.46,-0.0314,0.0331,9.8401,-0.8301,0.215,0.2174
7.48,0.0253,-0.1008,9.7562,-1.1166,-0.5508,-0.7967
7.5,-0.0181,0.0062,9.7734,0.062,0.27,-0.1974
7.52,0.017,0.0314,9.7578,0.2469,-0.2378,0.2966
7.54,0.0161,0.0141,9.8505,1.0286,-1.6789,-0.573
7.56,-0.0142,0.0172,9.8224,-0.3339,-0.406,-0.1136
7.58,-0.0266,0.0542,9.8107,0.3998,-1.0625,0.0953
7.6,-0.0595,-0.0316,9.7699,0.5888,-1.8857,-0.1497
7.62,0.0037,-0.0474,9.7876,0.7698,0.0979,0.2007
7.64,0.0519,-0.0469,9.8006,-1.0243,0.1359,0.8404
7.66,-0.0035,-0.0029,9.8427,0.4052,-0.2379,-0.3198
7.68,0.0216,0.0704,9.7939,-0.749,0.5222,0.2964
7.7,-0.0325,0.0471,9.7842,0.6002,-0.331,-0.2516
7.72,0.0244,-0.0727,9.8216,0.8454,-0.3479,0.644
7.74,-0.0223,-0.0638,9.8186,0.1616,-0.5748,-0.0033
7.76,-0.0791,-0.0151,9.8093,-0.0296,-1.403,0.5334
7.78,0.024,-0.1032,9.8066,-2.0071,0.2164,-0.0878
7.8,0.0001,0.0536,9.7741,-0.6898,0.551,-0.4251
7.82,0.03,0.004,9.8158,1.2794,0.5994,0.0189
7.84,-0.0028,-0.0441,9.7996,-0.3366,-0.5399,0.0245
7.86,0.0127,-0.001,9.8381,-1.8313,0.1178,-0.4854
7.88,-0.0107,-0.0542,9.7998,-0.4934,0.1122,0.1399
7.9,-0.0016,0.0451,9.8074,1.179,-0.5885,0.333
7.92,0.0266,0.1137,9.843,-0.6312,0.4882,0.6227
7.94,-0.03,0.0447,9.8221,-0.3168,2.0503,-0.609
7.96,0.0185,-0.0511,9.7953,0.1327,1.1105,-0.976
7.98,0.0043,0.0149,9.8006,0.0672,-0.6636,-1.1688
8.0,0.0465,0.0486,9.8481,-0.0474,-0.6767,0.2984
8.02,-0.0452,-0.015,9.7574,0.4103,0.4605,-1.1248
8.04,0.025,0.0549,9.8278,0.1897,-0.5035,0.6913
8.06,-0.0448,0.0023,9.8752,-0.2323,-0.9496,1.9763
8.08,-0.0013,0.013,9.8018,-0.265,-0.4482,0.271
8.1,-0.0732,-0.0648,9.8169,-0.3302,0.7971,0.121
8.12,-0.0224,-0.0169,9.7986,0.3792,-0.591,-1.2856
8.14,0.0035,-0.0046,9.8034,0.4151,0.9137,-0.2553
8.16,-0.0132,-0.0161,9.8122,-0.3189,-0.2455,-1.2016
8.18,-0.0304,0.033,9.8057,0.592,0.9042,-0.543
8.2,-0.0738,0.0305,9.822,-0.2031,0.3677,-0.0609
8.22,-0.0286,-0.0733,9.8015,0.2801,-1.1335,-0.8568
8.24,-0.0223,-0.0241,9.7807,0.3842,-0.9188,-0.7775
8.26,0.0031,0.0269,9.8429,-0.743,0.7309,-0.5219
8.28,-0.0441,0.0293,9.7728,0.0949,1.884,-0.5416
8.3,-0.0306,0.069,9.8115,-0.5743,0.4803,-1.277
8.32,-0.0101,0.0475,9.8027,-0.7543,-0.2262,0.2791
8.34,-0.0298,0.0303,9.8128,-0.4771,0.4721,-0.4628
8.36,0.0282,0.007,9.7898,-1.468,-0.953,0.5504
8.38,-0.0177,-0.032,9.8444,0.8187,0.2686,0.3373
8.4,-0.0075,-0.0525,9.7632,-0.915,-0.6569,0.3506
8.42,0.016,-0.0426,9.7972,0.0865,-0.2399,-0.7842
8.44,0.0109,-0.0034,9.8436,-2.5915,-0.0214,0.8705
8.46,-0.0355,0.0192,9.8028,-1.2288,1.3413,-0.7655
8.48,-0.0006,0.0037,9.773,-0.3348,1.6624,-0.5495
8.5,0.0257,-0.0064,9.8532,-2.2388,0.5165,-0.639
8.52,0.0292,0.0346,9.8351,1.5863,-0.5935,0.6024
8.54,0.0067,-0.0349,9.7934,-0.1447,1.8808,0.7034
8.56,-0.0289,-0.0099,9.8423,-0.2043,-0.6017,0.482
8.58,-0.0818,-0.0134,9.7837,-0.7707,-0.3527,-0.057
8.6,-0.0203,0.0079,9.8668,0.5333,0.8796,0.3156
8.62,-0.0308,0.0562,9.8099,0.2127,0.0584,-0.0581
8.64,-0.0262,-0.0286,9.7935,0.4542,-0.3961,-0.7987
8.66,-0.0621,0.0595,9.8081,-0.0594,0.4055,1.1229
8.68,-0.0363,-0.0112,9.8008,-0.7675,-0.3221,-1.9151
8.7,-0.0321,0.0582,9.8099,-0.0458,0.4716,-0.7559
8.72,0.0319,0.0081,9.7857,-0.0217,-1.2325,-0.2844
8.74,-0.0672,0.0872,9.8323,-0.5099,-0.0212,0.4053
8.76,0.0097,-0.0768,9.8119,0.9208,-0.4564,-1.3124
8.78,-0.0913,-0.0368,9.8265,-0.0013,-0.9256,-0.0643
8.8,0.0533,-0.012,9.8131,0.083,-0.0388,0.2312
8.82,-0.0279,-0.0299,9.801,0.7009,-0.6615,0.8304
8.84,-0.0359,-0.002,9.8169,-1.6486,-1.3198,-0.812
8.86,-0.0244,0.0187,9.7786,-0.8025,0.0559,-0.6083
8.88,0.0307,0.0394,9.8181,-1.9169,-0.0181,0.4785
8.9,-0.0368,-0.0878,9.8084,0.1913,0.2432,0.5948
8.92,0.0376,0.1171,9.8402,0.537,-0.4815,0.2706
8.94,-0.0245,0.0654,9.7971,0.8366,0.9198,-1.2746
8.96,0.0255,-0.0166,9.8087,0.8674,-0.5544,-0.1256
8.98,-0.0242,0.0262,9.8802,0.1853,0.3584,-0.335
9.0,-0.0703,-0.0135,9.7753,-0.3591,-0.2195,-0.6874
9.02,-0.0489,0.0068,9.7604,0.1794,0.0389,-0.7497
9.04,0.0625,-0.0115,9.7837,0.4971,-0.15,-1.0446
9.06,0.0082,0.0085,9.7862,-0.6824,-1.0986,-0.1998
9.08,-0.094,0.073,9.8072,0.4475,-0.7208,0.4927
9.1,-0.0311,0.0174,9.835,-0.7011,0.5583,0.4714
9.12,-0.0409,0.0063,9.7495,-1.4629,-1.5553,0.0272
9.14,-0.0673,-0.0095,9.7872,0.395,0.7037,-0.0393
9.16,-0.1414,-0.0114,9.7866,-0.3179,-0.9807,-0.049
9.18,0.0115,-0.0342,9.8029,-0.2363,-0.1095,0.4826
9.2,-0.0259,0.0313,9.7999,0.9725,-0.1227,-1.0376
9.22,0.0116,0.0091,9.8292,-0.2762,0.4916,0.5533
9.24,0.0465,0.0408,9.8718,0.025,-0.6143,-0.1075
9.26,-0.0157,0.0329,9.8721,-0.5152,-0.9371,-0.659
9.28,0.0091,-0.002,9.7842,-0.578,0.589,-0.5195
9.3,-0.0142,-0.0049,9.8261,0.1573,-1.0544,-0.4936
9.32,0.0351,0.065,9.8225,-0.1044,-0.4099,0.4634
9.34,-0.035,-0.0253,9.7889,0.9386,-0.7965,0.4979
9.36,0.0383,0.0301,9.7801,0.0285,-0.1218,-0.9953
9.38,-0.0679,0.0551,9.8488,0.3307,-0.1622,-1.0413
9.4,0.0211,-0.058,9.8409,0.6149,-0.2346,-0.6353
9.42,0.0044,0.0137,9.7914,0.4321,-1.4943,0.7917
9.44,0.048,0.0173,9.8329,-0.2258,0.0301,0.5477
9.46,-0.0208,-0.0174,9.8528,0.8586,1.9983,0.7008
9.48,-0.0079,-0.0221,9.8051,1.0517,0.5368,-1.0894
9.5,0.0237,0.0042,9.7597,0.0292,-0.9418,-1.158
9.52,-0.0114,-0.0113,9.7262,0.7371,0.1575,-1.8078
9.54,-0.0096,0.0328,9.8154,0.2168,1.5859,-0.6541
9.56,0.0538,-0.0341,9.8158,0.2476,-0.4959,1.4221
9.58,-0.0429,0.0134,9.7593,-0.6697,1.5221,-0.475
9.6,-0.0075,0.0173,9.8091,-0.5422,0.0738,-2.4793
9.62,0.025,0.0036,9.7676,0.96,-0.2624,0.7565
9.64,-0.0573,0.0284,9.7868,-0.0779,-0.1111,-0.3097
9.66,0.041,0.0028,9.8567,-0.2605,-0.7538,0.0547
9.68,0.0116,-0.0629,9.84,-0.8524,-0.203,1.9
9.7,-0.071,-0.0497,9.7907,-0.9617,0.9741,-0.1427
9.72,-0.0579,0.0231,9.7973,-0.2581,1.1193,-0.1226
9.74,0.0159,-0.0139,9.7683,-0.4039,-0.1443,0.5088
9.76,0.0014,0.0189,9.8274,0.79,1.2049,0.8548
9.78,0.0241,-0.0708,9.8698,0.745,-0.2577,-0.1561
9.8,0.0426,-0.0161,9.8615,0.8497,-2.1102,-0.3539
9.82,0.0181,0.0298,9.8098,-0.3367,0.6521,-0.0553
9.84,-0.0306,-0.0021,9.7821,-0.0425,-0.1288,-0.0494
9.86,0.0556,0.0027,9.8497,-0.6363,-0.7293,1.1834
9.88,0.1029,0.0084,9.8208,0.1746,0.2994,0.0093
9.9,-0.0222,-0.0585,9.8263,0.5527,0.7114,-0.3868
9.92,0.0251,-0.0211,9.8208,-0.3199,-0.2579,-0.25
9.94,0.0508,-0.0337,9.8434,-0.5141,-0.3203,-0.5869
9.96,0.0006,0.0093,9.7953,-1.1615,-0.9131,0.0426
9.98,-0.0076,0.1063,9.8531,-0.5419,0.2329,0.601
10.0,-0.0211,-0.0482,9.854,-0.6844,0.7204,-0.0045
10.02,-0.0042,0.0729,9.8295,0.0689,0.265,-2.2802
10.04,0.0567,-0.0215,9.7778,-0.3096,-0.0199,-0.6354
10.06,0.0007,-0.0969,9.8476,0.845,-1.0063,0.4782
10.08,0.0057,0.0369,9.8086,-0.0662,0.2893,1.1578
10.1,0.0919,-0.0156,9.852,0.456,0.0489,0.9887
10.12,0.0075,0.0342,9.7764,-0.7605,-0.4044,1.1785
10.14,-0.0375,0.0535,9.7882,2.0874,0.8748,-0.631
10.16,0.0574,-0.03,9.8335,1.0161,-0.08,-0.4398
10.18,-0.0276,-0.0739,9.8189,-0.6363,-0.5038,0.4448
10.2,0.041,-0.0191,9.7942,-0.9948,1.2518,0.0681
10.22,-0.0088,-0.0644,9.7746,1.4415,-0.4269,-1.4019
10.24,-0.0371,-0.0292,9.823,1.2177,-0.676,0.4749
10.26,-0.0143,-0.0666,9.7801,0.2294,1.5347,-1.3266
10.28,0.0533,-0.0466,9.8162,-0.4481,-0.4198,-0.9059
10.3,0.0149,-0.0423,9.7575,2.0215,-1.8063,-0.0437
10.32,0.0257,0.0512,9.7376,2.1636,0.3177,-0.5042
10.34,-0.0463,-0.0394,9.8064,0.5554,0.2315,-0.1276
10.36,-0.0523,0.0008,9.8087,1.6917,-0.0718,-0.7211
10.38,0.0553,-0.0023,9.7917,-0.1915,1.6074,-0.9343
10.4,-0.0562,0.0498,9.814,-0.5096,0.3636,0.309
10.42,0.0498,-0.0233,9.8368,0.3182,-2.171,0.8309
10.44,0.0018,-0.0375,9.8544,-0.4374,0.0755,0.436
10.46,-0.0125,0.0122,9.7968,0.4349,-0.4965,-0.2714
10.48,-0.0631,0.038,9.7621,0.4569,-0.2278,0.396
