time_s,Ax,Ay,Az,Gx,Gy,Gz
0.0,-0.0067,0.0128,9.765,-0.4703,0.3117,0.1138
0.02,-0.0128,-0.021,9.8524,0.5142,-0.027,0.4173
0.04,-0.0259,-0.0093,9.8034,0.635,-0.1426,0.0563
0.06,-0.0422,-0.0245,9.8256,-0.1596,-0.4303,0.0839
0.08,0.0098,0.0507,9.8241,-0.0481,-0.0565,0.1547
0.1,0.02,0.005,9.8041,-0.0084,0.7085,-0.0348
0.12,0.0207,0.0158,9.8026,-0.1619,-0.7269,0.0918
0.14,0.0095,-0.0143,9.7873,0.1314,0.115,-1.2624
0.16,0.0427,0.0196,9.7592,-0.4783,0.5311,-0.2445
0.18,0.05,-0.024,9.7777,-0.4298,-0.1729,0.5015
0.2,0.0083,0.0204,9.8363,0.1804,0.0255,0.0562
0.22,0.0327,-0.0276,9.8118,0.4845,1.4391,-0.4865
0.24,0.0402,-0.0094,9.7798,-0.1091,-0.3284,0.0924
0.26,0.0169,0.0248,9.7584,-0.0612,-0.2009,0.7433
0.28,-0.0098,0.0018,9.7806,-0.9195,-1.6995,0.2926
0.3,0.0042,-0.0002,9.7842,0.2287,-0.4054,-0.2747
0.32,-0.0036,0.0081,9.8096,0.1866,-0.4503,0.6072
0.34,0.0597,-0.0489,9.8062,-0.3,0.5365,0.1607
0.36,0.0068,-0.042,9.8403,-0.1192,-0.0206,0.2568
0.38,0.0349,-0.0023,9.7948,-0.811,0.4992,-0.0058
0.4,0.0076,0.0064,9.8193,-0.344,-0.6012,0.3059
0.42,0.0164,-0.0206,9.8033,0.3155,1.1845,0.8222
0.44,0.0075,0.0019,9.7831,-0.1303,0.0562,0.3163
0.46,-0.0247,-0.077,9.8092,0.7978,0.5405,-0.3169
0.48,-0.0157,0.0367,9.8135,0.668,-0.1034,-0.0683
0.5,0.0215,0.0244,9.8243,-0.7601,-0.7968,0.3235
0.52,0.0478,0.0014,9.8169,0.0952,-0.3062,-0.1159
0.54,0.0188,-0.0044,9.7886,0.2839,0.0786,0.2749
0.56,0.0381,0.0213,9.8522,0.6277,0.6569,0.0208
0.58,-0.0165,-0.0111,9.8293,0.2765,-0.0476,1.2426
0.6,0.0316,-0.0159,9.8487,-0.0042,-0.2409,-0.1806
0.62,0.0307,0.0209,9.7566,-0.9188,0.198,-0.1819
0.64,0.0036,-0.0068,9.8316,0.2475,0.1495,0.465
0.66,0.0093,0.0091,9.8242,0.2721,-0.4039,0.0625
0.68,0.007,-0.0821,9.8436,-0.2735,0.3535,0.2152
0.7,0.041,-0.0203,9.8076,-0.3915,-0.1913,-0.5659
0.72,0.0305,-0.0466,9.7798,0.0435,0.7672,0.1283
0.74,-0.0052,-0.0162,9.8612,-0.2669,-0.3798,-0.0541
0.76,0.002,0.0499,9.8134,-0.3354,0.2578,-0.0485
0.78,-0.0133,0.0106,9.8096,0.536,-0.8783,0.469
0.8,-0.0321,0.0138,9.7944,-0.2657,0.0112,-0.0707
0.82,0.065,0.0159,9.8344,0.1678,0.1974,0.7848
0.84,-0.0221,0.0622,9.7941,-0.2153,0.2643,-0.4719
0.86,0.0118,-0.0295,9.8258,-0.717,-0.4869,0.4702
0.88,0.0625,-0.0797,9.8272,0.4853,-0.8063,0.0807
0.9,0.0422,-0.0287,9.82,0.0403,0.9754,-0.2724
0.92,-0.0059,-0.0258,9.7853,0.3375,0.2114,0.1421
0.94,0.0382,-0.0185,9.8315,0.0299,-0.3583,0.1064
0.96,0.0277,0.0298,9.8579,-0.7561,-0.5004,0.1226
0.98,0.0209,0.0001,9.8292,0.0617,-0.6909,0.4005
1.0,0.0597,0.0672,9.8514,-0.5835,0.4384,-0.1718
1.02,-0.0057,-0.0533,9.8332,0.807,0.1573,-0.2051
1.04,0.0088,0.0053,9.8,0.7047,-0.1201,0.0731
1.06,-0.0215,0.025,9.8419,-0.8913,0.3382,0.3394
1.08,-0.0131,0.0791,9.7932,-0.1112,0.0333,0.8396
1.1,0.0313,-0.0177,9.8136,-0.2684,-0.1828,0.7413
1.12,-0.0189,0.0254,9.837,-0.0702,0.1956,-0.2324
1.14,-0.02,-0.0446,9.8041,0.1518,0.1388,-0.657
1.16,-0.0201,-0.026,9.7817,-0.4074,-0.8872,-0.255
1.18,0.057,-0.0185,9.7942,-0.6533,-0.25,-0.2474
1.2,0.0451,-0.0242,9.7848,-0.2936,-0.7321,-0.2921
1.22,-0.001,0.0226,9.8205,-0.2431,-1.2077,-0.2419
1.24,-0.009,-0.0077,9.8649,0.3166,0.2287,0.4592
1.26,0.0056,-0.0259,9.8436,0.0124,0.0136,-0.087
1.28,0.0187,-0.0353,9.8117,0.5824,-0.441,0.1357
1.3,-0.0474,0.0107,9.7859,-0.0777,-0.0637,-0.377
1.32,0.0489,-0.0353,9.839,0.2107,0.3539,-0.0503
1.34,0.0259,-0.0373,9.7951,-0.6355,0.1364,0.5015
1.36,0.004,0.0586,9.8026,0.8603,0.6818,-0.7506
1.38,0.0122,-0.009,9.7955,-0.3162,-0.1256,-0.0287
1.4,-0.0385,-0.0045,9.8168,-0.3581,0.426,0.0626
1.42,0.0172,0.0149,9.8196,0.5623,-0.6328,-0.5291
1.44,-0.0075,0.038,9.8062,0.7468,0.0081,-0.0908
1.46,0.0362,0.0087,9.801,0.0227,0.1711,-0.624
1.48,-0.0004,-0.0029,9.8363,-0.2621,-0.4299,-0.095
1.5,-0.0292,0.0223,9.7849,0.0109,0.1084,0.5761
1.52,0.0234,-0.0029,9.7964,0.0036,0.204,0.2289
1.54,0.0228,-0.0132,9.8071,-0.0723,0.2471,0.1808
1.56,-0.0114,0.0075,9.7854,0.0253,0.9124,-0.2403
1.58,-0.0088,0.0208,9.8306,-0.6174,-1.1793,0.5781
1.6,0.0188,-0.0039,9.777,-0.2319,0.1273,-0.004
1.62,0.0465,-0.0728,9.7975,-0.7733,0.2725,-0.0412
1.64,0.0061,-0.0164,9.7976,-0.8816,0.8482,0.2011
1.66,-0.0069,-0.0395,9.7787,-0.2739,-0.1198,0.4492
1.68,0.0068,-0.051,9.8175,-0.2274,-0.5151,-0.0016
1.7,-0.0318,-0.0182,9.7808,0.3742,-0.1187,-0.1184
1.72,0.0239,0.0096,9.7968,-0.1131,1.1755,-0.157
1.74,-0.027,-0.0482,9.833,-0.5084,-0.2527,-0.608
1.76,-0.0111,-0.0329,9.7885,-0.0688,-0.1565,-0.5968
1.78,-0.0251,0.0075,9.8046,1.117,-0.6972,-0.4237
1.8,-0.0302,-0.0282,9.8527,-0.3664,-0.7548,-0.0523
1.82,-0.0733,-0.0212,9.8312,0.0438,0.1864,-0.2823
1.84,0.0064,-0.0037,9.7838,-0.175,0.5701,-0.3946
1.86,-0.0177,0.0196,9.8633,-0.0127,-0.3523,0.7806
1.88,0.016,-0.0127,9.8215,0.8077,-0.0089,0.2744
1.9,-0.0145,-0.0541,9.8363,1.3351,1.318,-0.3008
1.92,0.0216,0.0128,9.8429,0.3231,-0.1886,0.3231
1.94,0.0225,0.0057,9.7924,0.111,0.035,0.0661
1.96,-0.0547,-0.002,9.8061,-0.3016,0.1926,0.4978
1.98,0.0064,0.0025,9.7734,0.0841,-0.1277,-0.4853
2.0,0.0044,0.0401,9.8157,-0.4134,-0.3435,-0.321
2.02,-0.0526,0.0705,9.8156,0.4511,-0.6351,-0.0282
2.04,-0.0264,0.0135,9.7919,-0.0715,0.4188,0.0705
2.06,-0.0338,-0.0018,9.8169,0.0045,0.1561,0.0389
2.08,-0.0273,-0.0162,9.8563,0.2249,-0.6589,0.2376
2.1,0.0227,0.0107,9.8201,-0.2745,-0.0155,0.5147
2.12,-0.0305,-0.0047,9.848,0.4701,0.1597,-0.671
2.14,0.0331,0.0215,9.7842,-0.309,0.2228,-0.439
2.16,-0.0344,0.028,9.8025,-0.4472,-0.5964,-0.1649
2.18,-0.0493,0.0032,9.8347,-0.0339,-0.8987,-0.7613
2.2,-0.0097,0.014,9.8276,-0.0654,-0.7732,0.8109
2.22,-0.0458,0.0092,9.8036,-0.8013,-0.3249,-0.7673
2.24,0.0032,0.0202,9.7619,-0.7659,0.0625,0.0751
2.26,-0.0152,-0.069,9.8366,-1.203,-0.3585,0.7107
2.28,-0.0046,-0.0096,9.8142,0.5324,0.8209,-0.1604
2.3,0.008,0.0191,9.806,-0.0021,-0.4445,-0.46
2.32,-0.025,-0.0252,9.8394,0.1175,-0.3302,0.7177
2.34,-0.0111,-0.0036,9.7341,-0.2523,-0.1136,0.2995
2.36,0.0009,0.0229,9.8377,0.1269,0.063,0.2164
2.38,-0.0326,0.0021,9.7965,0.7244,-0.9154,-0.181
2.4,-0.0152,-0.0387,9.7528,0.7315,-0.2771,0.4164
2.42,-0.0082,-0.0321,9.8146,0.7362,-0.2152,0.2727
2.44,-0.0677,0.0384,9.7986,0.1897,-0.6684,-0.4776
2.46,-0.0087,-0.0053,9.8143,0.3076,-0.6919,-0.3977
2.48,-0.0348,-0.0113,9.8364,-0.2358,0.0194,-0.5801
2.5,0.0361,0.0249,9.8165,-0.2311,0.5263,-1.0258
2.52,-0.0376,-0.0211,9.7958,-0.51,0.1317,0.3631
2.54,-0.0402,0.0061,9.8462,-0.1877,-0.1013,-0.3839
2.56,-0.0027,-0.0404,9.8215,-0.4642,0.6085,0.5296
2.58,0.0126,0.0219,9.7949,0.5633,0.3044,-0.1529
2.6,0.037,0.0449,9.797,0.0629,-0.041,-0.5691
2.62,0.0412,-0.0291,9.7806,-0.1717,0.4534,-0.3136
2.64,-0.0381,-0.0188,9.7907,0.0116,-0.3742,-0.3668
2.66,-0.0066,-0.0514,9.8138,0.8171,0.0105,0.6355
2.68,0.0267,-0.0127,9.7944,0.3483,1.0995,0.1972
2.7,0.002,-0.0117,9.7876,0.4173,0.2233,-0.2555
2.72,-0.0166,0.0207,9.7691,-0.2891,-0.5578,0.0626
2.74,-0.0039,0.01,9.7792,0.3559,0.5735,0.1692
2.76,0.0461,0.0023,9.7851,-0.1982,0.3759,0.1587
2.78,-0.0128,-0.0065,9.783,0.2235,0.1177,1.2624
2.8,-0.0248,0.0007,9.7991,-1.0485,0.3253,-0.749
2.82,0.0167,0.0123,9.7933,0.8486,-0.133,0.551
2.84,-0.0423,-0.0218,9.8248,-0.1799,-0.1444,-0.1491
2.86,-0.004,-0.0342,9.8735,0.3649,0.1941,0.1287
2.88,-0.0404,-0.0583,9.8349,0.8372,0.1843,-0.0038
2.9,-0.0341,0.0635,9.7711,0.1479,-0.2935,0.6075
2.92,-0.0982,0.0536,9.8871,-0.3021,0.6031,-0.3018
2.94,-0.0369,0.025,9.8237,0.6658,0.5159,-0.113
2.96,-0.0096,-0.0256,9.7972,0.1974,0.5718,0.1826
2.98,0.0022,-0.0091,9.8125,0.3543,0.3722,-0.0825
3.0,0.0245,0.0247,9.8414,-0.5427,-0.206,-0.2611
3.02,0.0058,-0.014,9.7952,-0.1249,-0.5781,0.2723
3.04,-0.0112,0.005,9.7938,-0.4045,0.8507,0.18
3.06,-0.0027,0.0367,9.7965,-0.9933,0.2809,-0.4086
3.08,0.0064,0.0063,9.7991,1.5345,-0.1089,1.0728
3.1,-0.025,0.0407,9.804,1.4283,-0.1552,0.9721
3.12,-0.04,-0.0172,9.7974,-0.2458,0.4228,0.5782
3.14,-0.0022,0.0271,9.8126,-0.1179,0.2523,0.2826
3.16,0.0113,-0.0155,9.8283,-0.662,-0.1018,-0.2773
3.18,0.0038,-0.0553,9.7831,0.7106,0.6741,-0.0091
3.2,0.0026,-0.0127,9.7882,0.2161,-0.0456,-0.0505
3.22,-0.0615,-0.0084,9.7937,-0.4199,0.6354,0.3983
3.24,-0.0227,0.0091,9.8615,0.2849,-0.0512,0.4883
3.26,-0.0173,0.0042,9.7644,0.0886,0.1808,0.4703
3.28,0.0026,0.0096,9.8253,0.2364,-0.2738,0.2015
3.3,-0.098,-0.1,9.8515,0.0587,0.7442,-0.6473
3.32,-0.071,0.0145,9.8147,-0.1826,-0.2477,0.1001
3.34,0.0053,-0.0315,9.7802,0.0637,0.1802,0.3308
3.36,0.0465,0.0189,9.7681,0.3045,-0.0915,0.0764
3.38,0.0647,-0.0166,9.8249,-0.0705,0.281,0.4444
3.4,0.0152,0.0181,9.7962,0.8901,0.9211,0.1482
3.42,-0.0434,-0.0256,9.8575,-0.6178,-0.7258,-0.2518
3.44,0.013,-0.0052,9.7798,0.2054,-0.2378,0.195
3.46,0.03,-0.0212,9.7766,-0.4268,-0.2769,0.4465
3.48,0.0187,-0.0454,9.8375,0.2413,0.9029,0.2738
3.5,-0.036,-0.0192,9.7481,-0.4054,-0.3565,0.0369
3.52,0.0156,-0.015,9.7767,-0.6425,-0.1821,0.2133
3.54,0.0445,-0.0015,9.8412,-0.0629,1.0803,-0.3302
3.56,0.0014,0.0534,9.7515,0.411,-0.1787,0.0683
3.58,0.0047,-0.0333,9.8065,0.0221,0.7216,0.5429
3.6,-0.0157,0.001,9.78,-0.4614,-0.5479,-0.1081
3.62,0.0071,-0.002,9.7859,-0.6429,0.6579,0.6957
3.64,-0.0122,0.0017,9.8104,0.6833,0.4559,0.7555
3.66,-0.0278,-0.0035,9.8566,-1.3507,-0.3252,-0.2197
3.68,-0.0044,-0.0105,9.8044,0.5312,0.3137,-0.2617
3.7,0.0365,-0.0353,9.8164,-0.2045,-1.1108,0.1433
3.72,0.0436,-0.0575,9.8164,0.9907,-0.1918,0.1756
3.74,-0.0057,0.0253,9.828,-0.8938,-0.2238,0.1006
3.76,0.0554,0.0678,9.8156,-0.2986,-0.6633,-0.39
3.78,0.0112,0.0129,9.8119,-0.9135,0.3064,-0.0222
3.8,0.0081,0.0167,9.814,-0.0592,-0.0988,-0.0017
3.82,0.0152,-0.0052,9.7868,0.1626,0.0763,-0.1224
3.84,0.0141,0.083,9.8179,0.6643,-0.8958,0.0846
3.86,0.0132,-0.0095,9.8301,-1.3049,1.2564,0.8176
3.88,0.0324,0.0162,9.8325,-0.0911,0.5013,-0.1846
3.9,0.0028,-0.0318,9.8194,0.0213,-0.6485,-0.1429
3.92,0.0536,0.0101,9.7833,0.0512,0.7802,-0.4141
3.94,-0.0155,-0.022,9.8043,0.2055,-0.933,-0.9137
3.96,0.0385,0.0122,9.8216,-1.1583,0.1074,0.2477
3.98,0.0278,0.0338,9.8194,0.0327,0.5316,-0.055
4.0,-0.0542,-0.023,9.8073,0.6254,-0.1046,-0.5762
4.02,0.05,0.0487,9.815,0.546,0.4151,0.6493
4.04,0.039,-0.0018,9.8188,0.67,0.002,0.1113
4.06,0.0579,0.0071,9.7734,0.1398,0.0646,-0.0011
4.08,0.0149,-0.0407,9.8063,0.0817,0.0857,-0.0679
4.1,-0.0258,0.0096,9.8038,-0.1809,-0.5137,-0.5034
4.12,0.0166,0.0563,9.7705,-1.1668,-0.9399,0.3164
4.14,0.0134,0.0124,9.7977,0.1691,0.6717,-0.4045
4.16,0.0119,-0.0229,9.828,-0.429,0.6418,-0.4649
4.18,0.0066,-0.0271,9.8352,-0.2088,-1.0289,0.2331
4.2,0.0794,-0.0112,9.799,0.5905,0.1333,-0.0153
4.22,-0.0321,-0.0339,9.7539,-0.1111,-0.1044,-0.0651
4.24,0.1125,0.0037,9.8308,0.0425,0.8044,0.4319
4.26,-0.0197,0.0229,9.8204,-0.4482,0.2566,0.199
4.28,0.0526,0.0387,9.802,-0.7473,-0.7957,-0.1017
4.3,0.0384,-0.04,9.8057,0.5733,0.2271,-0.0981
4.32,0.0384,-0.011,9.8088,0.0847,-0.3016,-0.3402
4.34,0.0629,-0.0145,9.8455,-0.369,-1.4416,0.1669
4.36,0.0481,0.0299,9.8193,-0.6012,0.2712,-0.1498
4.38,0.0558,-0.0074,9.8196,-0.4233,-0.1252,0.8288
4.4,0.0052,0.0163,9.81,0.2074,0.2269,-0.4528
4.42,0.0559,0.0188,9.8079,0.2425,-0.2736,-0.3879
4.44,0.0081,-0.0177,9.7936,-0.8007,0.6199,-0.5392
4.46,0.0168,-0.0176,9.8055,0.1541,0.4101,-0.5025
4.48,0.0158,0.0501,9.8542,-0.4248,0.6432,0.0763
4.5,-0.0031,0.0046,9.8538,-1.591,0.1674,0.4793
4.52,0.0242,-0.0202,9.8564,0.1447,-0.2169,0.1649
4.54,-0.0422,-0.0048,9.8249,0.2365,-0.0537,0.4833
4.56,0.0322,-0.0161,9.8206,0.2803,0.327,-0.5835
4.58,0.016,-0.0464,9.8215,0.4311,0.3912,0.2424
4.6,0.0117,-0.0113,9.861,1.065,-0.146,-0.2927
4.62,-0.0178,0.0276,9.8234,-0.7552,0.1723,0.1973
4.64,-0.0285,0.0409,9.8037,0.2245,0.1011,-0.0339
4.66,0.0375,0.0066,9.8192,-0.1716,0.2614,0.0476
4.68,0.0432,-0.032,9.8222,-0.4911,0.014,0.3706
4.7,-0.0208,-0.0284,9.7765,-0.228,0.4364,-0.2341
4.72,0.0243,-0.0142,9.8256,-0.361,-0.4952,0.2289
4.74,0.026,0.0111,9.7725,0.6786,0.2839,-0.4395
4.76,0.0043,-0.0025,9.8525,0.2232,0.1198,0.176
4.78,-0.0096,0.0026,9.8194,-0.592,0.1843,-0.7135
4.8,-0.0331,0.0021,9.8041,-0.6402,0.2584,-0.0214
4.82,0.0242,-0.0335,9.7852,-0.098,-0.4529,0.1354
4.84,-0.0387,-0.0326,9.8032,0.6128,0.048,0.3394
4.86,0.0258,0.0218,9.8139,0.4065,-0.2383,-0.0429
4.88,0.0105,-0.0086,9.8044,0.1548,0.2864,0.8934
4.9,-0.0125,-0.0402,9.785,0.7481,0.0861,0.1727
4.92,-0.0111,-0.0147,9.8565,0.2385,-0.6489,0.1717
4.94,-0.0244,0.0327,9.8527,-0.3839,0.8729,-0.6239
4.96,-0.0057,-0.0364,9.7893,-0.2434,0.4403,-0.3775
4.98,0.0127,0.0277,9.8287,0.8976,0.0416,0.0215
5.0,0.0258,-0.0308,9.8262,0.7625,-0.2523,0.7094
5.02,-0.006,-0.0266,9.8193,-0.3367,-0.2465,0.2912
5.04,-0.0073,-0.0201,9.7963,0.1209,-0.7397,0.5346
5.06,-0.0055,-0.046,9.759,-0.5025,0.0547,0.2434
5.08,0.0136,-0.0091,9.7798,-0.1526,-0.6786,0.4069
5.1,0.0296,-0.0012,9.8287,0.3525,-0.1334,0.2831
5.12,0.0337,0.0261,9.8548,1.1019,0.221,-0.1738
5.14,0.0381,0.0062,9.7935,-0.502,0.2081,0.006
5.16,0.0078,-0.0001,9.8252,-0.0048,-0.4039,0.142
5.18,0.0189,-0.0136,9.8198,0.4987,0.0807,0.0406
5.2,-0.0422,0.003,9.8476,0.157,-0.2924,-0.6879
5.22,0.0096,-0.0724,9.7862,0.2271,-0.4584,-0.4118
5.24,0.011,-0.0279,9.8021,-0.8949,0.4029,-0.1932
5.26,-0.0384,0.068,9.8239,-0.2391,-0.5175,0.0601
5.28,0.0346,0.0119,9.8343,0.1779,0.6639,0.8261
5.3,-0.0299,-0.0344,9.8269,0.5656,-0.5109,0.1955
5.32,-0.0516,-0.015,9.8316,-0.4457,-0.3216,-0.4761
5.34,-0.0041,-0.0008,9.8215,0.41,-0.544,-0.0977
5.36,-0.0187,0.0235,9.7866,-0.212,-0.1251,0.1849
5.38,-0.0231,-0.009,9.8117,0.1578,-0.077,-0.6246
5.4,0.0152,-0.0148,9.8522,0.1805,0.3142,0.2815
5.42,0.0426,-0.0203,9.785,0.6851,-0.9594,0.0177
5.44,0.0005,-0.0555,9.8046,0.5949,-0.1025,0.3526
5.46,-0.0333,0.0324,9.8611,-0.3394,0.1797,0.0397
5.48,-0.0605,-0.0263,9.7649,-0.1084,-0.1454,-0.237
5.5,0.0149,0.0149,9.871,-0.0329,0.5829,0.3266
5.52,0.0021,0.023,9.8115,-0.2496,-0.6754,-0.2885
5.54,-0.0443,0.0095,9.8103,0.6309,-0.1888,0.3311
5.56,0.021,-0.0433,9.7618,-0.3998,0.1435,0.575
5.58,-0.0393,0.0136,9.7698,-0.4758,-0.3171,-0.9248
5.6,-0.0187,0.0,9.8196,-0.4052,-0.7882,-0.3029
5.62,-0.0334,-0.0231,9.8336,0.0925,-0.4263,-0.476
5.64,-0.0489,0.0249,9.8097,-0.6926,0.0171,0.2488
5.66,0.0257,0.0008,9.7842,0.946,-0.7539,0.5494
5.68,-0.0712,-0.011,9.8129,-0.3232,-0.215,-0.0054
5.7,-0.0451,0.0135,9.7975,0.4932,0.7033,0.2617
5.72,-0.0437,-0.0108,9.8089,0.4622,-0.072,-0.282
5.74,-0.0292,-0.0338,9.8041,0.1199,-1.1509,-0.4681
5.76,-0.0478,0.0043,9.8274,-0.325,-0.256,0.1571
5.78,-0.0017,-0.0187,9.8325,0.3541,1.0884,-0.3912
5.8,-0.0447,-0.0311,9.8281,0.175,-0.0987,-0.1008
5.82,-0.04,0.0322,9.7912,0.4385,-0.043,-1.0193
5.84,0.0107,0.0249,9.804,0.0496,-0.5815,0.6373
5.86,-0.004,0.0051,9.8255,-0.2293,-0.2038,-0.3158
5.88,-0.0156,0.0604,9.8214,0.4486,0.5825,-0.1039
5.9,0.03,0.0244,9.7661,0.2905,-0.3032,0.5986
5.92,-0.0479,-0.0023,9.7994,-0.2406,0.6518,-0.1564
5.94,-0.0012,0.0002,9.8352,0.6338,0.9205,-0.371
5.96,-0.0492,-0.0143,9.8312,0.182,-0.0908,0.073
5.98,-0.0321,0.0221,9.8071,0.6287,-0.136,0.0856
6.0,-0.0466,-0.0233,9.7467,-0.5975,0.2367,-0.0049
6.02,0.0192,-0.0885,9.7796,1.2015,0.7699,0.1789
6.04,-0.0367,0.0088,9.8269,-0.4058,-0.1024,0.3965
6.06,0.0056,0.0078,9.8296,-0.6045,-0.0794,0.3037
6.08,0.0195,-0.0413,9.7894,0.4448,0.5089,0.3283
6.1,0.0155,-0.0325,9.8256,-0.5832,-0.138,0.1621
6.12,0.009,0.0545,9.8011,0.0849,-0.4604,0.1581
6.14,0.0219,-0.012,9.8082,-0.3804,-0.0163,-0.9508
6.16,-0.0091,-0.0088,9.7947,0.8199,-0.3481,0.8616
6.18,0.0013,0.0088,9.83,-0.2894,-0.4534,-0.1225
6.2,0.0121,0.0155,9.8312,0.0132,1.0611,-0.0146
6.22,0.0107,0.0012,9.7781,0.8291,0.022,0.5958
6.24,0.065,-0.0022,9.8314,0.2875,-0.3581,-0.4145
6.26,-0.0354,-0.0122,9.8308,-0.0496,-0.9688,0.4344
6.28,-0.0307,0.0541,9.8341,0.3117,0.021,0.5608
6.3,-0.014,-0.0237,9.7695,0.3513,-0.265,0.3025
6.32,-0.0126,0.026,9.7504,-0.1537,0.4066,-0.0789
6.34,0.0228,0.0151,9.8076,0.1272,1.0385,-0.554
6.36,0.054,-0.0075,9.8012,-0.4103,0.0537,-0.4811
6.38,0.0197,-0.0006,9.8442,0.3617,-0.1528,-0.2641
6.4,0.0533,-0.0418,9.7883,0.9034,0.6392,0.3662
6.42,-0.0255,0.044,9.867,-0.6319,0.6846,0.2194
6.44,0.0269,0.0082,9.8231,-0.1114,0.052,-0.1328
6.46,-0.0751,0.0335,9.825,-0.3673,-0.249,-0.4874
6.48,-0.0084,0.0136,9.7812,-0.0476,-0.0366,-0.5775
6.5,-0.0248,-0.0073,9.8015,-0.3962,-0.6215,-0.357
6.52,-0.0443,-0.0142,9.8001,-0.231,0.1413,0.089
6.54,0.0136,0.0426,9.7766,-0.1145,0.391,-0.2356
6.56,0.0342,-0.0129,9.8154,0.0882,0.1725,-0.4685
6.58,0.0066,-0.0438,9.8093,-0.0324,-0.0204,0.3355
6.6,-0.0111,0.0076,9.7945,0.0164,-0.5037,0.0769
6.62,0.0024,-0.0079,9.8019,-0.2262,-0.4984,-0.1184
6.64,-0.0342,0.0355,9.8296,-1.0452,1.3074,0.4213
6.66,0.0065,0.0143,9.8347,-0.4977,-0.3569,-0.3891
6.68,0.0416,0.0507,9.8184,-0.1384,0.4759,0.0839
6.7,-0.0403,0.0054,9.8187,-0.4496,-0.2318,-0.2406
6.72,-0.0267,0.0185,9.8096,0.3828,0.0421,0.1346
6.74,0.0226,0.0067,9.7876,0.3301,0.5128,-0.1654
6.76,0.01,-0.0066,9.7531,0.5748,0.65,0.5954
6.78,-0.0321,-0.0004,9.8235,0.2244,0.6361,-0.4853
6.8,0.019,-0.0195,9.7864,0.0477,-0.2758,0.4022
6.82,-0.0185,0.0151,9.8087,-0.547,0.1942,0.1741
6.84,0.0322,0.0026,9.781,-0.3175,-0.5499,-0.4147
6.86,0.05,0.0478,9.8137,0.3094,-0.5557,0.1143
6.88,0.0297,0.0063,9.8356,0.029,-0.176,0.1394
6.9,0.0488,-0.0614,9.7652,1.2749,-0.2826,1.1338
6.92,0.0381,-0.0319,9.8275,-1.0271,0.6674,-0.0539
6.94,-0.0271,-0.0134,9.8148,0.1693,0.7402,-0.0498
6.96,0.0018,0.0281,9.8398,0.611,-0.1886,0.1223
6.98,0.0151,-0.0025,9.8147,0.0724,0.233,0.0777
7.0,-0.042,-0.0007,9.756,0.1299,-0.5392,-0.0925
7.02,-0.0025,-0.03,9.8546,0.4149,1.0556,0.1497
7.04,0.0142,-0.0566,9.8179,0.445,-0.1936,-0.2649
7.06,-0.0333,0.0423,9.7729,-0.4342,0.0335,-0.738
7.08,-0.0048,-0.0425,9.7985,0.7135,-0.0743,0.1005
7.1,0.0582,-0.0052,9.8064,0.5464,0.091,0.7594
7.12,-0.032,-0.0046,9.7741,-0.8862,0.7345,-0.082
7.14,-0.0094,-0.0026,9.8501,0.2676,-0.5748,0.1136
7.16,0.0118,0.0347,9.8424,-0.3651,-0.9047,-0.1949
7.18,0.0274,0.0341,9.8048,0.4421,-0.7812,0.0149
7.2,0.0288,-0.0296,9.8076,1.3828,-0.6415,0.5574
7.22,0.0299,0.0252,9.8085,-0.0887,-0.2716,0.6913
7.24,0.0736,-0.0015,9.8431,-0.1557,0.0023,-0.1056
7.26,0.006,0.0243,9.7999,-0.2158,-1.0123,-0.1741
7.28,0.0263,0.0205,9.8125,0.3587,1.0661,-0.5337
7.3,0.0886,-0.0603,9.794,-0.6758,-0.8281,0.1289
7.32,-0.0084,-0.0004,9.7776,0.3648,-0.6013,0.3871
7.34,0.0336,0.0215,9.7986,-0.4247,0.3448,-0.4464
7.36,0.0216,-0.0209,9.8283,0.3071,-0.7969,-0.1852
7.38,0.0338,0.0247,9.836,0.7734,-0.2284,0.2801
7.4,0.0212,-0.0597,9.8291,-0.5981,-0.4632,-0.0546
7.42,0.0002,0.0385,9.8124,0.1133,-0.296,0.4527
7.44,0.001,-0.032,9.8116,0.0491,-0.1439,-0.7309
7.46,-0.0104,0.0345,9.7993,0.3556,0.8298,-0.1227
7.48,0.0168,0.0046,9.8183,-0.1828,0.358,0.7426
7.5,-0.0268,0.0173,9.8247,-0.1552,-0.5127,0.2935
7.52,0.0237,0.0433,9.8391,-0.1042,-0.4639,0.2838
7.54,0.0282,0.0234,9.8048,0.6594,0.1867,-0.4802
7.56,-0.0434,-0.0198,9.8296,0.3255,1.0723,0.1763
7.58,0.027,0.0049,9.8426,0.811,0.4386,-0.4525
7.6,0.023,-0.0164,9.8618,0.4239,0.7123,-0.1064
7.62,0.0545,0.002,9.8026,-0.6451,0.3876,-0.7111
7.64,0.0265,0.0125,9.8287,-0.0876,-0.4589,-0.4155
7.66,-0.0006,0.0211,9.7749,-0.3031,0.2628,0.7596
7.68,0.0348,0.0413,9.8601,0.1171,0.2746,0.5544
7.7,0.0334,-0.0194,9.8038,-0.4402,-0.2264,-0.048
7.72,0.0195,0.0609,9.8171,0.1926,0.8066,0.2476
7.74,0.0708,-0.0025,9.8504,-0.2137,-0.348,-0.0234
7.76,-0.0061,0.0163,9.833,-0.9665,-0.0671,1.1478
7.78,0.055,0.0204,9.8559,0.3574,-0.1946,-0.1439
7.8,0.0233,-0.021,9.8283,0.9326,0.1069,-0.2434
7.82,0.0207,-0.0066,9.7793,0.5475,-0.2768,-0.2445
7.84,-0.0045,0.0438,9.834,-0.9901,-0.6436,0.0354
7.86,-0.0097,-0.0211,9.8176,-0.4824,0.6679,-0.4168
7.88,-0.0346,0.0331,9.8409,-0.4076,0.3133,0.1679
7.9,-0.0063,0.0134,9.8029,-0.1898,-0.1497,0.2579
7.92,-0.0035,-0.0276,9.8683,0.2158,0.116,-0.1669
7.94,0.0072,-0.0068,9.8225,0.0269,0.2398,-0.0594
7.96,0.0136,-0.0164,9.7983,0.0891,0.3936,-0.3011
7.98,0.0352,0.0165,9.8015,-0.6142,-0.9217,-0.327
8.0,0.0195,-0.0381,9.8033,0.2241,-0.2153,0.0157
8.02,0.0231,0.0138,9.7876,-0.0985,0.1042,-0.4436
8.04,0.0255,-0.0067,9.7686,0.536,0.267,0.5158
8.06,-0.0176,0.0087,9.8538,-0.0516,-0.1024,-0.0666
8.08,0.0271,-0.0119,9.8133,1.1901,0.3053,-0.7764
8.1,0.0238,0.0156,9.7836,0.1173,1.1284,-0.2462
8.12,0.0853,0.0556,9.8173,0.1022,-0.6719,0.9281
8.14,-0.0016,0.0637,9.8156,0.0528,0.6876,0.5631
8.16,-0.0068,-0.0432,9.8292,0.1486,-0.131,0.2029
8.18,-0.0081,-0.0512,9.841,0.2909,0.8147,-0.2613
8.2,0.0321,-0.0397,9.7967,-0.0019,0.5286,0.2593
8.22,-0.0029,0.0686,9.8046,-0.1311,0.1315,0.207
8.24,-0.0093,0.0061,9.7884,1.1013,0.4554,-0.0693
8.26,-0.0385,-0.0281,9.7841,-0.0689,1.0944,-0.0704
8.28,0.0424,0.0111,9.8518,-0.993,1.0653,-0.383
8.3,0.0096,0.0342,9.7617,-0.0902,0.2932,0.0137
8.32,-0.0134,0.0409,9.7767,-0.1564,-0.0532,0.0705
8.34,0.0109,0.0362,9.826,-0.6086,0.4572,0.0331
8.36,0.0213,0.0163,9.7856,-0.0714,-0.023,-0.1954
8.38,0.005,-0.0153,9.7985,-0.1116,-0.2696,0.2547
8.4,-0.0179,-0.074,9.7818,-0.1678,0.8744,-0.2247
8.42,-0.0496,-0.0317,9.8415,0.0533,-0.4977,-0.508
8.44,-0.0009,0.0008,9.8121,0.504,0.1625,-0.1184
8.46,0.0375,0.0402,9.7854,0.6315,-0.1772,0.4201
8.48,0.0373,0.0033,9.8173,0.1243,0.3263,0.2318
8.5,-0.0105,0.0317,9.7482,0.6703,0.0369,0.4212
8.52,-0.0161,0.0326,9.7808,-0.2744,0.0661,-0.2783
8.54,0.0104,0.0039,9.8099,0.5363,0.4131,-0.3216
8.56,0.0133,-0.0238,9.7917,0.1522,1.0584,0.54
8.58,-0.0033,-0.0104,9.8099,-0.1436,-0.2771,0.1435
8.6,-0.0012,-0.0043,9.7751,-0.0818,-0.8529,-0.9884
8.62,0.0117,-0.0168,9.7853,-0.3293,-0.2508,-0.2167
8.64,0.0141,0.0179,9.8227,1.0598,-0.7999,-0.0234
8.66,-0.0387,-0.0347,9.8347,-0.1277,0.7693,0.5932
8.68,-0.0104,-0.0194,9.7864,-0.4449,-0.2225,-0.8842
8.7,0.0293,0.0128,9.826,0.2482,0.5041,-0.2023
8.72,-0.0111,0.0179,9.8291,0.4043,-1.1214,-0.0713
8.74,-0.0024,0.0258,9.8378,-0.2638,-0.2884,-0.1076
8.76,0.0624,0.003,9.8205,-0.2239,1.1978,0.3919
8.78,0.0204,-0.0053,9.783,0.0622,0.5841,0.0105
8.8,0.002,0.0189,9.8347,-1.0177,0.0082,-0.2863
8.82,-0.0109,-0.0004,9.7988,0.3444,-0.0706,0.2674
8.84,-0.0048,-0.0209,9.7948,0.4888,-0.0296,-0.6852
8.86,0.001,0.0161,9.8122,-0.7384,0.079,-0.2152
8.88,-0.0583,-0.0811,9.8198,-0.1623,-0.4614,0.9391
8.9,-0.0215,-0.0182,9.8245,-0.1044,0.1726,0.7225
8.92,0.0262,-0.0093,9.8274,-0.1542,-0.5809,0.297
8.94,-0.0332,0.0334,9.8313,-1.2602,-0.3332,0.255
8.96,0.0098,-0.0286,9.779,0.7933,-0.7209,0.1725
8.98,-0.0256,0.0218,9.8468,0.9843,0.4679,0.5085
9.0,-0.0294,0.0055,9.8279,0.1848,-0.2823,-0.6131
9.02,-0.0262,0.0214,9.8376,-0.789,0.2263,0.043
9.04,-0.0099,0.0171,9.8336,-0.2364,-0.4889,-0.2277
9.06,-0.018,-0.0066,9.7853,-0.4586,-1.6063,0.2688
9.08,-0.0506,-0.012,9.8369,-0.4162,0.0496,-0.1535
9.1,-0.0664,0.0497,9.8675,-0.5837,0.1771,-0.1718
9.12,-0.0168,0.0281,9.8342,-0.3821,-0.3341,0.1933
9.14,-0.025,0.0601,9.818,0.1051,0.0395,-0.1872
9.16,-0.0195,0.0285,9.8076,-0.3582,0.0862,0.3709
9.18,-0.0259,0.0147,9.7842,0.0713,-0.5794,-0.1623
9.2,-0.0301,0.0316,9.765,-0.8305,0.256,-0.6834
9.22,-0.0424,0.001,9.7793,0.4,-0.1994,0.0172
9.24,-0.0467,-0.0132,9.8055,-0.3231,-0.5117,0.0109
9.26,-0.0951,-0.0113,9.8293,0.2122,0.1513,0.5144
9.28,0.0368,0.0198,9.7851,0.143,0.0404,0.0441
9.3,-0.0719,-0.0023,9.7811,-0.0072,-0.283,-0.596
9.32,-0.0314,0.0105,9.8242,0.2955,0.5587,0.2631
9.34,-0.0054,-0.0226,9.7776,-0.1376,-0.1526,0.0393
9.36,0.0031,-0.0029,9.8046,-0.4771,0.5531,0.2754
9.38,0.0206,0.0053,9.794,0.1744,-0.1154,-0.7267
9.4,-0.0411,0.0537,9.7727,0.468,0.0571,-0.7036
9.42,-0.0214,-0.0191,9.8533,-0.7435,0.9994,0.119
9.44,0.0206,-0.0353,9.7826,-0.0296,0.6351,-0.4226
9.46,-0.0264,0.0218,9.7836,-0.5398,-0.3859,-0.4196
9.48,-0.0366,0.0058,9.8133,0.5951,-0.7025,-0.0013
9.5,-0.031,-0.0059,9.7929,0.6193,0.9985,0.0653
9.52,-0.0667,-0.0137,9.7748,-0.2671,0.1916,-0.3666
9.54,-0.01,0.021,9.8126,-0.4739,-0.5732,-0.0617
9.56,-0.0008,-0.0075,9.8069,-0.1224,-0.6446,0.6392
9.58,-0.0464,-0.0073,9.83,-0.3782,-0.2257,0.1945
9.6,-0.0471,0.0152,9.8081,-0.2883,-0.0961,-0.0472
9.62,-0.0281,0.0714,9.8398,0.1397,0.3318,-0.0299
9.64,-0.0293,-0.0111,9.8461,0.0729,0.1893,0.0775
9.66,-0.0528,0.0295,9.812,-0.4143,0.1902,0.1862
9.68,-0.0203,-0.0439,9.767,-1.1867,-0.3651,-0.3368
9.7,-0.0721,0.0017,9.8319,0.3852,-1.1712,-0.2236
9.72,-0.013,-0.0154,9.8111,-0.2716,0.1482,-0.0579
9.74,0.0184,0.0005,9.8051,0.2677,-0.6092,-0.0579
9.76,-0.0003,0.0162,9.8009,1.0257,-0.3799,-0.2726
9.78,0.012,0.0388,9.7807,-0.0388,-0.2071,-0.1351
9.8,-0.0233,-0.0336,9.7456,0.3934,0.1775,0.3577
9.82,0.0535,0.0137,9.7958,-0.4845,-0.0869,-0.5794
9.84,-0.0332,-0.0198,9.8378,-0.0112,-0.361,0.4302
9.86,0.0072,-0.0198,9.8166,-0.846,0.0978,0.034
9.88,0.008,0.0119,9.8045,0.7482,-0.5566,0.0678
9.9,0.0137,0.0395,9.8436,0.5832,-0.3525,0.0993
9.92,0.02,-0.0215,9.7911,-0.3867,-0.7464,0.2666
9.94,0.0096,-0.023,9.7848,0.3266,-0.344,0.2239
9.96,-0.0205,0.0201,9.7679,0.9726,-0.8001,0.3094
9.98,-0.012,-0.0006,9.7987,0.2471,-0.5357,0.7254
10.0,0.0392,-0.0078,9.7977,0.0556,-0.5205,0.2897
10.02,0.0016,0.0155,9.8169,0.0791,-0.4904,-0.129
10.04,-0.0172,0.0076,9.7896,0.3772,0.5784,-0.3827
10.06,-0.0274,-0.013,9.811,0.1177,-0.3149,0.2343
10.08,-0.022,0.0322,9.8522,-0.7249,0.0327,-0.1049
10.1,0.07,-0.0147,9.8085,-0.2946,-0.2215,-0.5397
10.12,0.0329,0.0031,9.8083,0.2887,-0.0234,0.0118
10.14,-0.0412,-0.0032,9.8139,0.7232,0.4367,0.2831
10.16,-0.016,0.0454,9.8242,0.8099,-0.342,0.0246
10.18,-0.0504,0.0129,9.8323,-0.2717,1.1128,-0.2718
10.2,-0.0418,0.0323,9.801,0.753,0.6968,0.3128
