time_s,Ax,Ay,Az,Gx,Gy,Gz
0.0,0.022,0.6253,9.8356,-0.5911,4.9582,4.5858
0.02,0.0629,0.5204,9.8412,-1.6235,10.0591,5.4414
0.04,0.0086,0.6452,9.9188,9.0292,11.2366,5.4344
0.06,-0.0034,0.7233,10.0376,5.5814,9.0495,3.6248
0.08,-0.012,0.6289,10.0529,5.0256,10.2776,5.741
0.1,0.1906,0.6921,10.1262,7.4803,12.1935,3.6167
0.12,0.0902,0.6801,10.1935,8.9322,8.8248,3.5882
0.14,0.1029,0.7542,10.1186,12.5663,6.6064,1.0001
0.16,0.1163,0.5799,10.3644,8.5416,9.0738,1.0894
0.18,0.3061,0.7228,10.3396,15.5234,11.2393,1.4741
0.2,0.1412,0.7869,10.4083,14.7258,7.9907,0.7869
0.22,0.1314,0.8782,10.2962,13.6519,7.4673,-1.8107
0.24,0.2581,0.6196,10.3997,10.6938,9.5524,-3.0494
0.26,0.1812,0.6807,10.3183,14.1822,9.1445,-2.9492
0.28,0.1878,0.7164,10.2245,14.3903,7.1057,-1.4399
0.3,0.1709,0.577,10.1501,10.1125,10.8705,-1.4083
0.32,0.0536,0.5478,10.1563,7.0615,6.7626,-2.6641
0.34,0.0473,0.5713,10.1001,7.0676,6.5504,-5.2896
0.36,0.0337,0.6489,9.9607,5.5497,7.1683,-2.5479
0.38,0.0342,0.6088,10.1539,4.9058,8.7974,-3.4264
0.4,-0.0634,0.4627,9.8924,-2.0334,8.9256,-2.9997
0.42,-0.0643,0.6072,9.8829,1.4794,8.7032,-7.523
0.44,0.0359,0.5546,10.0074,1.5819,7.6951,-2.1437
0.46,-0.0111,0.4552,9.9705,-5.2698,5.9629,-8.5609
0.48,-0.1672,0.5149,10.0688,-3.8747,9.1089,-4.5234
0.5,-0.1448,0.3821,10.0708,-2.657,6.9293,-3.8611
0.52,-0.1559,0.417,10.2032,-9.4587,8.0837,-2.818
0.54,-0.1845,0.2375,10.1855,-6.6594,4.7622,-4.255
0.56,-0.2033,0.2852,10.3711,-5.8205,8.3253,-2.8555
0.58,-0.4261,0.4431,10.288,-13.8518,7.4515,-3.6594
0.6,-0.2723,0.3355,10.3418,-12.141,11.408,-4.1433
0.62,-0.1341,0.3709,10.3112,-13.9765,5.4026,-0.8897
0.64,-0.1625,0.283,10.3248,-9.7327,7.6784,1.4638
0.66,-0.2446,0.4489,10.3077,-10.9314,7.5345,2.3473
0.68,-0.229,0.4662,10.3755,-12.405,5.7976,1.6793
0.7,-0.0953,0.3849,10.279,-12.1084,8.4645,3.9149
0.72,-0.1452,0.4203,10.0902,-9.6705,6.2074,3.084
0.74,-0.1275,0.5274,10.2315,-11.0443,9.0365,3.1511
0.76,-0.1213,0.4407,10.1799,-8.4037,10.7651,3.7419
0.78,-0.0299,0.4623,9.9806,-0.7874,7.5062,1.7073
0.8,-0.0392,0.7236,9.9409,-0.8262,8.671,3.7761
0.82,-0.049,0.4401,9.8441,0.0216,5.039,4.5445
0.84,0.0324,0.4957,9.7512,-3.4884,5.3981,2.3562
0.86,0.0205,0.6761,10.0536,0.9708,6.5277,4.0858
0.88,0.0743,0.6674,9.9645,6.5809,7.7102,4.5051
0.9,0.0434,0.6854,9.9214,10.2576,12.6851,2.4254
0.92,0.1085,0.7748,10.1399,5.212,8.0663,4.1576
0.94,0.1371,0.722,10.2546,12.448,12.2425,1.4236
0.96,0.0541,0.753,10.4119,11.8822,9.9747,-0.3327
0.98,0.247,0.6711,10.35,13.3039,8.8872,1.2025
1.0,0.2301,0.6773,10.325,11.3556,7.5998,1.6683
1.02,0.1331,0.7854,10.2674,10.7878,5.6098,0.7433
1.04,0.2894,0.6274,10.3188,13.2073,6.9714,-1.2969
1.06,0.1663,0.6077,10.3161,12.6033,8.7944,1.3331
1.08,0.2273,0.677,10.4094,13.5808,6.1563,2.603
1.1,0.2534,0.675,10.3439,8.7717,9.4942,-3.3776
1.12,0.2011,0.5439,10.2288,12.6892,5.9124,-1.6311
1.14,0.1266,0.7494,10.2854,9.9519,7.4465,-3.7167
1.16,0.085,0.6517,10.0896,12.3414,7.407,-2.2419
1.18,0.0435,0.6188,10.158,4.7149,9.9226,-6.5631
1.2,0.0523,0.5268,10.1022,8.2649,6.3789,-4.106
1.22,-0.0428,0.7,9.9132,5.3613,9.1035,-4.0547
1.24,-0.0058,0.5898,9.945,-0.202,8.7258,-1.2906
1.26,0.065,0.5837,9.7274,0.7989,11.1255,-2.0709
1.28,0.05,0.483,9.8582,-5.1707,9.889,-5.2818
1.3,-0.1141,0.5518,9.9603,-3.8079,7.5212,-1.6633
1.32,0.0038,0.529,10.2168,-7.323,8.1629,-4.694
1.34,-0.1915,0.3881,10.2183,-4.5444,4.0912,-1.6861
1.36,-0.1857,0.3862,10.2111,-13.1286,10.0124,-2.4346
1.38,-0.1681,0.3153,10.3127,-11.0383,9.7033,0.4996
1.4,-0.183,0.3472,10.2551,-10.0979,6.8349,-2.0545
1.42,-0.1863,0.5558,10.3249,-6.9991,6.6463,0.6792
1.44,-0.2741,0.3417,10.2871,-7.8147,4.9879,-1.224
1.46,-0.177,0.4824,10.3386,-16.6252,9.6577,-0.6578
1.48,-0.1659,0.3125,10.4239,-13.2915,9.1347,2.4664
1.5,-0.0998,0.3569,10.2815,-13.2256,4.2524,-2.6276
1.52,-0.2636,0.4634,10.3464,-10.5492,8.0503,2.0022
1.54,-0.1822,0.4675,10.3257,-8.2984,9.5963,2.9711
1.56,-0.0976,0.4694,10.1273,-10.1896,9.0621,2.8876
1.58,-0.0435,0.3202,10.0637,-6.6711,11.7386,1.1801
1.6,-0.0527,0.5382,10.1068,-8.3559,4.4372,3.8244
1.62,-0.0747,0.4236,9.906,1.0487,7.7986,4.5294
1.64,0.0537,0.4349,9.8847,-5.0112,13.8974,2.4235
1.66,-0.0986,0.4758,9.8178,-2.7169,8.5034,4.4054
1.68,0.0694,0.5071,9.9543,3.7845,7.5066,1.1319
1.7,0.0864,0.5616,9.9985,1.0387,5.1003,4.8258
1.72,0.0502,0.5757,10.0534,4.2562,9.9959,4.868
1.74,0.0872,0.651,10.0399,6.8922,7.5446,3.1449
1.76,0.0661,0.6456,10.1296,6.5778,7.2526,3.1363
1.78,0.1512,0.6315,10.3219,8.3561,7.4799,1.1802
1.8,0.1138,0.6567,10.3012,12.2089,9.5321,-0.5313
1.82,0.1421,0.7043,10.2598,15.264,10.5062,-0.8977
1.84,0.2143,0.6312,10.3372,11.1522,7.316,3.4162
1.86,0.1321,0.8315,10.2691,6.8034,4.6834,1.6657
1.88,0.2988,0.4909,10.3549,15.2195,10.1255,0.5705
1.9,0.1301,0.7052,10.3436,14.4299,11.727,-0.2122
1.92,0.284,0.6116,10.3303,13.6531,7.3386,0.6623
1.94,0.056,0.7014,10.4065,16.5533,8.7385,-1.004
1.96,0.1333,0.7362,10.2342,9.3619,7.6514,-2.9344
1.98,0.1608,0.5724,10.2189,6.6374,7.6464,-5.1111
2.0,0.1853,0.5318,10.1221,8.9662,6.2656,-3.1882
2.02,0.0304,0.6103,10.0562,4.4231,3.433,-0.5662
2.04,0.0796,0.6889,9.9809,-0.7309,5.3867,-2.1562
2.06,0.0865,0.5063,9.9738,3.6352,6.797,-6.3135
2.08,0.0583,0.557,9.7814,-1.179,6.8713,-2.7543
2.1,-0.1044,0.5914,9.8595,-4.1324,7.0078,0.6107
2.12,0.0024,0.4476,9.9595,-2.2828,8.388,-3.988
2.14,-0.135,0.4474,10.1059,-3.7925,7.0479,-2.1575
2.16,-0.0133,0.4473,10.2351,-6.6485,7.7415,-5.329
2.18,-0.1069,0.341,10.2187,-6.149,9.008,-3.2381
2.2,-0.1335,0.4525,10.3134,-7.8202,8.9415,-1.6252
2.22,-0.1373,0.363,10.1867,-10.4356,10.4279,-2.7328
2.24,-0.2296,0.4823,10.3096,-13.1007,8.1914,-0.0579
2.26,-0.1776,0.4795,10.3673,-15.7987,6.4023,-1.9019
2.28,-0.1675,0.4399,10.3866,-14.9473,7.5105,-1.0734
2.3,-0.2526,0.435,10.4405,-9.6875,7.9185,-0.4449
2.32,-0.2154,0.4704,10.4155,-9.4426,8.6006,0.4956
2.34,-0.1662,0.4399,10.2983,-10.7959,5.6542,-2.1095
2.36,-0.2396,0.3626,10.3411,-11.177,5.2152,0.4923
2.38,-0.111,0.4312,10.2129,-12.43,6.6227,4.2419
2.4,-0.144,0.4668,10.2406,-4.8017,11.5724,5.1887
2.42,-0.0831,0.5582,10.1388,-5.7539,10.3183,4.6648
2.44,0.0091,0.3416,10.0216,-5.0469,8.1059,5.9495
2.46,-0.0539,0.5892,9.9326,-1.938,5.545,3.5304
2.48,-0.0442,0.594,9.9518,-1.1482,5.6159,5.0874
2.5,0.0251,0.3576,9.892,0.8923,8.2337,4.5078
2.52,0.0013,0.6089,9.8665,-5.1821,11.8832,5.0269
2.54,0.0118,0.5294,9.8908,3.7637,6.4082,2.8437
2.56,0.066,0.8167,10.0081,4.0796,5.0668,2.2884
2.58,0.1795,0.511,10.1166,10.4851,9.8937,4.5646
2.6,0.2107,0.6734,10.1207,9.0057,5.4778,2.5081
2.62,0.0988,0.7519,10.2928,4.4789,8.7132,2.0165
2.64,0.171,0.691,10.2956,7.1151,9.629,4.5015
2.66,0.2163,0.6107,10.2153,10.3489,9.5284,1.1132
2.68,0.1669,0.6249,10.3493,8.7474,9.8868,0.6585
2.7,0.2387,0.6953,10.3227,10.7367,6.1489,-0.0391
2.72,0.0915,0.5946,10.323,12.0953,9.7542,-2.3837
2.74,0.2188,0.6063,10.3341,11.6483,5.8466,-4.6223
2.76,0.1766,0.7004,10.2958,9.9177,9.4255,-2.5741
2.78,0.1863,0.6621,10.3078,10.6779,9.4288,-5.1945
2.8,0.186,0.6415,10.2524,12.1513,9.3636,-2.6622
2.82,0.1088,0.4817,10.1677,5.8229,6.7877,-3.9546
2.84,0.2204,0.6937,10.109,10.5738,9.6326,-3.7895
2.86,0.0156,0.595,9.9893,5.4367,9.7505,-2.7738
2.88,0.1625,0.575,9.8189,7.5998,8.823,-2.9727
2.9,0.0181,0.6107,9.8407,5.3944,3.761,-6.0936
2.92,-0.006,0.4875,9.8225,0.2875,5.9919,-3.4339
2.94,0.054,0.4826,9.8788,0.6546,10.477,-2.5913
2.96,-0.1499,0.5163,10.039,-5.2458,8.2722,-0.1849
2.98,-0.166,0.4461,9.9602,-7.7673,8.7761,-3.3102
3.0,-0.1537,0.4669,10.083,-5.387,9.67,-1.8338
3.02,-0.0689,0.4359,10.1826,-13.3321,8.1524,-1.6622
3.04,-0.2787,0.4743,10.1535,-14.9769,12.5461,-3.653
3.06,-0.1677,0.3746,10.2469,-8.3429,9.5502,-1.9498
3.08,-0.2183,0.3763,10.348,-14.785,7.5108,-3.3762
3.1,-0.2243,0.4214,10.4324,-12.5687,7.2527,-1.0441
3.12,-0.162,0.2947,10.4284,-11.6108,8.7689,1.1221
3.14,-0.1529,0.2798,10.4187,-9.2977,6.0233,-0.4834
3.16,-0.1351,0.2894,10.3114,-12.8281,7.0183,-1.3381
3.18,-0.1622,0.4092,10.3173,-9.9131,7.3564,2.2082
3.2,-0.1782,0.4035,10.2071,-15.7899,6.6387,2.0799
3.22,-0.1205,0.3574,10.1699,-14.1132,7.2149,1.6054
3.24,-0.0211,0.5538,10.0878,-7.8159,8.4613,1.6526
3.26,-0.192,0.2971,10.0957,-3.0542,6.7889,3.0701
3.28,-0.1254,0.6395,9.9869,-2.8507,9.1616,4.6197
3.3,-0.097,0.646,10.0133,-3.4218,9.3889,4.6347
3.32,-0.0427,0.5036,9.8351,-0.331,5.5519,2.0635
3.34,0.047,0.4774,9.7046,2.7045,4.8252,0.6865
3.36,0.2017,0.6715,9.9298,2.556,8.5075,4.2042
3.38,0.1068,0.56,9.833,0.1894,7.0732,6.0498
3.4,0.107,0.6645,9.9751,6.7138,10.5113,1.9854
3.42,0.1125,0.555,10.0241,9.4583,8.8798,3.5097
3.44,0.2413,0.6812,10.1287,10.4933,7.0235,0.6899
3.46,0.1501,0.58,10.3353,11.2219,8.9797,0.4747
3.48,0.1648,0.6754,10.2584,9.7045,10.4912,3.7239
3.5,0.2189,0.7114,10.2554,12.4174,9.3186,1.2724
3.52,0.0494,0.7126,10.3882,11.1703,6.5514,-0.7671
3.54,0.2325,0.763,10.2706,16.8769,5.8211,4.3017
3.56,0.2084,0.726,10.2867,11.9756,9.5039,0.8592
3.58,0.1694,0.669,10.3297,10.2118,7.1472,-2.4081
3.6,0.2072,0.7871,10.3206,7.0311,8.9773,-0.8696
3.62,0.2218,0.6437,10.2322,9.7834,5.4902,-1.856
3.64,0.1889,0.6511,10.2512,7.803,7.4545,-3.7499
3.66,0.1331,0.6825,10.0884,6.0809,5.2053,-1.65
3.68,0.1691,0.7116,10.0438,4.0637,8.9946,-1.3412
3.7,0.0571,0.5952,9.9239,1.2032,8.972,-5.9955
3.72,-0.0097,0.7469,9.9307,1.6992,7.0198,-4.0459
3.74,0.0999,0.6787,9.7673,0.0901,6.2303,-1.5639
3.76,-0.0507,0.5683,9.8286,-2.6514,11.0595,-3.7847
3.78,-0.1286,0.6769,9.9907,-1.1097,7.0578,-3.8958
3.8,-0.1823,0.3939,10.1119,-4.327,7.5129,-3.0855
3.82,-0.1711,0.4447,10.1057,-6.6517,10.1773,-2.8176
3.84,-0.2434,0.477,10.2271,-7.042,8.4642,-4.6587
3.86,-0.2551,0.2934,10.2705,-9.2596,6.3178,-4.441
3.88,-0.1164,0.5247,10.2069,-8.462,9.4704,-2.0327
3.9,-0.2691,0.372,10.2569,-11.1838,10.5961,-3.0624
3.92,-0.1495,0.448,10.2927,-12.8275,10.27,-0.6247
3.94,-0.1506,0.5905,10.4565,-12.5276,7.0674,-3.4428
3.96,-0.0797,0.3854,10.3891,-11.0731,10.0987,0.796
3.98,-0.2301,0.4587,10.293,-11.6367,4.2999,2.1726
4.0,-0.1849,0.4996,10.3704,-8.5236,8.6669,2.6479
4.02,-0.256,0.4438,10.2174,-10.7141,11.8833,0.5019
4.04,-0.1724,0.3851,10.2241,-8.018,6.2802,2.5264
4.06,-0.098,0.4035,10.1529,-6.7231,11.8917,2.7495
4.08,0.0426,0.3532,10.213,-6.3139,8.8932,4.4761
4.1,-0.0926,0.4651,10.0317,-4.5541,8.6978,3.2303
4.12,-0.1128,0.3961,10.0224,-7.6206,3.3885,4.2765
4.14,0.0467,0.4957,9.9919,-1.0752,8.4589,6.9645
4.16,0.0178,0.5943,9.7678,-3.7488,7.8388,3.9725
4.18,0.0242,0.5609,9.8325,-1.0808,9.3445,0.541
4.2,0.0444,0.5993,9.9442,5.4528,2.8782,1.8759
4.22,0.0816,0.672,10.0826,6.701,6.1309,2.7268
4.24,0.0523,0.6717,10.1051,4.8109,6.3186,3.0029
4.26,0.0519,0.6677,10.1925,6.8522,6.3418,5.2403
4.28,0.1607,0.5897,10.2299,9.1589,7.7465,4.8971
4.3,0.0961,0.6534,10.2518,9.6001,8.1267,2.2441
4.32,0.2271,0.7058,10.3104,14.946,5.8017,5.0954
4.34,0.2826,0.6967,10.4376,13.7865,8.3354,-0.2476
4.36,0.1638,0.7885,10.3371,12.4904,8.5652,-0.1526
4.38,0.1968,0.6942,10.3878,14.131,6.9112,-0.2923
4.4,0.2158,0.7827,10.4108,10.8699,7.8062,1.5584
4.42,0.0818,0.5937,10.2827,12.8931,9.2224,-0.9623
4.44,0.2753,0.6483,10.3485,8.7657,6.8387,-0.858
4.46,0.136,0.7246,10.3356,8.6944,5.2243,-2.9326
4.48,0.2248,0.7431,10.1795,7.2712,7.8545,-3.736
4.5,0.0477,0.677,10.1826,8.7554,9.4091,-3.0404
4.52,0.157,0.5277,10.029,3.1917,12.3186,-5.8068
4.54,0.0345,0.4346,10.0463,6.6655,7.4019,-5.0757
4.56,0.0431,0.6341,9.7992,1.6688,6.3007,-0.5883
4.58,0.078,0.6043,9.8434,-0.1297,8.8027,-5.2282
4.6,-0.0345,0.4948,9.8773,4.4153,7.426,-4.6771
4.62,0.0013,0.5508,9.9697,-5.1307,7.5149,-5.3775
4.64,-0.1032,0.5214,10.0882,-4.6711,8.3147,-2.6918
4.66,-0.172,0.4796,10.0476,-5.9767,9.273,-5.1197
4.68,-0.2153,0.5423,10.2554,-9.2992,8.9349,-2.1235
4.7,-0.1106,0.4473,10.2775,-6.9096,9.783,-3.6142
4.72,-0.1708,0.483,10.3895,-13.8123,7.1944,-0.909
4.74,-0.1426,0.4278,10.3754,-12.1714,6.0242,-1.4009
4.76,-0.0792,0.5452,10.3,-5.2243,9.8696,-0.2408
4.78,-0.2271,0.4754,10.3408,-13.216,6.9477,-1.2283
4.8,-0.159,0.321,10.3039,-13.5783,10.6841,1.1677
4.82,-0.1326,0.3796,10.3704,-10.5814,7.5369,-0.6091
4.84,-0.1817,0.376,10.3341,-9.7212,9.0998,-0.7616
4.86,-0.2633,0.4966,10.2436,-10.9985,9.8803,1.6219
4.88,-0.1716,0.3699,10.1797,-8.3926,6.9655,1.497
4.9,-0.2061,0.371,10.2952,-5.4479,7.8477,5.8754
4.92,-0.1201,0.5458,10.0578,-3.1165,9.4542,4.0746
4.94,-0.1773,0.576,10.0538,-3.3963,5.9813,1.9265
4.96,-0.1112,0.4642,9.9299,-6.0493,8.9112,3.7685
4.98,-0.0271,0.5492,10.0022,-2.6507,10.0776,2.622
5.0,0.1296,0.5846,9.6607,-1.4446,6.1754,4.7565
5.02,-0.0182,0.5536,9.8757,2.7619,7.7337,3.7147
5.04,-0.0902,0.5822,9.9641,4.8222,6.396,2.9559
5.06,0.1313,0.5437,9.9569,6.9698,9.5655,2.6135
5.08,0.1095,0.5055,10.1186,4.114,7.0651,5.2083
5.1,0.1552,0.6267,10.1488,8.6131,5.9776,1.0237
5.12,0.1181,0.6088,10.1275,10.5449,10.2917,-0.8592
5.14,-0.0086,0.6693,10.3107,9.9749,7.6205,2.2805
5.16,0.2279,0.6412,10.2771,11.2456,3.855,3.5868
5.18,0.226,0.6702,10.3391,12.8743,9.3411,-0.3093
5.2,0.2585,0.657,10.3596,13.7337,10.731,1.0278
5.22,0.1696,0.5922,10.3949,6.8042,6.8492,1.2919
5.24,0.0942,0.7722,10.2296,9.8746,6.8238,-1.5849
5.26,0.2219,0.5632,10.2447,10.5649,10.3226,-3.6175
5.28,0.1784,0.6414,10.1957,7.6305,7.5389,-2.7174
5.3,0.1741,0.626,10.2241,9.7488,8.9032,-2.8472
5.32,0.1542,0.7483,10.0273,5.3558,9.6702,-5.2053
5.34,0.2257,0.5975,10.1634,4.2671,6.5514,-0.7172
5.36,0.0528,0.6949,10.0376,7.1617,10.8592,-3.3477
5.38,0.1529,0.4622,9.9226,2.0228,7.9431,-2.0946
5.4,-0.0425,0.4782,9.8668,3.9818,6.537,-3.7763
5.42,0.0023,0.4801,9.7524,3.5115,8.0197,-5.6503
5.44,-0.1082,0.6827,9.887,2.9693,9.7098,-2.0485
5.46,-0.0369,0.4643,9.9101,-1.8006,12.0204,-4.1517
5.48,-0.1149,0.4686,10.0146,-4.437,9.8648,-4.861
5.5,-0.1613,0.3651,10.1732,-8.0548,8.6239,-2.7877
5.52,-0.2488,0.5008,10.1614,-5.6876,11.5666,0.2196
5.54,-0.1353,0.5406,10.2294,-10.3246,11.5736,-1.3731
5.56,-0.1264,0.3207,10.3012,-10.7162,8.6408,-3.9099
5.58,-0.1486,0.5455,10.2198,-11.7493,7.5069,-1.6779
5.6,-0.2289,0.4695,10.3722,-14.3196,6.1633,-2.3463
5.62,-0.219,0.4953,10.3218,-10.9851,9.2951,3.3428
5.64,-0.2181,0.3129,10.4001,-13.9381,10.7161,-0.0409
5.66,-0.1249,0.1748,10.3235,-7.9094,6.1693,1.8473
5.68,-0.1598,0.4889,10.3169,-16.3403,8.4694,2.8406
5.7,-0.19,0.3888,10.2368,-5.9363,6.3814,3.4482
5.72,-0.2295,0.4408,10.287,-7.2758,6.4943,0.1326
5.74,-0.0759,0.4815,10.1938,-8.5075,10.7368,3.3136
5.76,-0.0949,0.409,10.1431,-7.6115,5.7719,2.9164
5.78,-0.1094,0.5983,10.0624,-3.2776,7.2343,2.826
5.8,-0.1513,0.4552,9.9562,-0.8348,5.996,6.1237
5.82,0.0385,0.5474,9.89,-0.2585,7.1889,3.603
5.84,-0.0511,0.7205,9.8707,-2.3367,8.2153,1.153
5.86,-0.0078,0.4921,9.8909,7.0874,6.5164,2.0253
5.88,0.1855,0.6672,10.0738,3.881,5.1207,4.9929
5.9,0.0687,0.5077,10.0751,5.4166,7.2763,2.1167
5.92,0.1627,0.6354,10.1639,12.7045,7.1823,2.5871
5.94,0.1954,0.6379,10.2592,10.3865,7.2764,2.6282
5.96,0.2657,0.6676,10.1957,8.8003,6.2105,0.5349
5.98,0.143,0.7084,10.3144,12.6833,8.9434,1.9003
6.0,0.1316,0.7609,10.3394,12.7973,5.2927,3.017
6.02,0.3395,0.8584,10.318,10.6158,7.9761,-0.2889
6.04,0.2079,0.7649,10.2676,10.3593,9.0069,0.6603
6.06,0.1621,0.7208,10.3259,15.7888,10.1011,-3.1512
6.08,0.2442,0.5612,10.2254,10.4091,8.8981,-1.7261
6.1,0.3385,0.8344,10.2257,8.7726,7.6868,-2.043
6.12,0.1945,0.7612,10.2513,9.3854,5.3647,-6.0991
6.14,0.16,0.5809,10.3516,7.6524,8.0504,-3.0757
6.16,0.1734,0.591,10.1806,12.5367,6.3964,-3.6896
6.18,0.1074,0.4967,10.1807,7.6231,7.1538,-2.0314
6.2,0.0344,0.5873,9.9494,4.2028,6.8626,-2.7479
6.22,0.0282,0.5064,9.9914,10.1604,6.556,-2.1069
6.24,0.0753,0.6297,9.6592,1.2832,7.9443,-5.0847
6.26,-0.0088,0.5132,9.8068,-1.7244,7.4729,-4.4298
6.28,-0.0409,0.5926,9.9262,-4.7966,8.816,-4.5467
6.3,0.0378,0.5637,10.0523,-6.875,9.6659,-6.5177
6.32,-0.0709,0.3919,10.0032,-7.1,9.3405,-1.8883
6.34,-0.1455,0.4969,10.0413,-8.6216,4.2418,-2.7799
6.36,-0.2017,0.3782,10.2018,-11.9188,8.726,-2.7617
6.38,-0.1744,0.5133,10.2839,-9.1199,6.6684,-1.5315
6.4,-0.1594,0.4211,10.1849,-12.6191,7.9781,-1.049
6.42,-0.2079,0.3106,10.3366,-7.881,9.9844,-0.4049
6.44,-0.2004,0.3011,10.3674,-8.6408,8.4619,1.048
6.46,-0.0525,0.3593,10.4283,-9.721,4.0012,1.1398
6.48,-0.3598,0.501,10.3398,-14.6642,7.6629,2.6199
6.5,-0.1338,0.4863,10.2337,-13.3109,6.388,0.6395
6.52,-0.2423,0.3766,10.1832,-7.8403,10.0565,2.7074
6.54,-0.2163,0.511,10.214,-11.9824,7.4125,4.265
6.56,-0.19,0.4531,10.2178,-6.5602,7.5094,3.9806
6.58,0.0154,0.4866,10.0816,-4.1816,9.991,3.3578
6.6,0.0355,0.5375,10.0355,-8.3908,9.0942,4.2805
6.62,-0.1223,0.5325,9.9718,-6.0536,9.9791,0.5038
6.64,0.0026,0.4642,9.9501,-3.7262,4.6493,2.9708
6.66,0.0022,0.5077,9.7928,-3.3728,8.7596,4.1413
6.68,-0.0031,0.545,9.8141,3.3393,9.0997,2.6356
6.7,-0.095,0.6218,10.0054,5.4451,8.2189,2.8398
6.72,0.0349,0.5891,10.0461,3.7642,6.6234,2.113
6.74,0.1489,0.5499,10.1105,6.541,10.827,4.1197
6.76,-0.0069,0.7508,10.1396,6.4927,5.2595,1.9581
6.78,0.1497,0.5762,10.1907,12.6892,7.6491,1.5646
6.8,0.1976,0.7665,10.2696,15.1714,9.7105,0.7211
6.82,0.1233,0.665,10.2366,7.4609,9.2977,1.0074
6.84,0.1536,0.8182,10.256,9.2307,8.5488,-0.2215
6.86,0.3067,0.7752,10.3705,6.9947,5.2014,1.126
6.88,0.2558,0.667,10.4675,10.8241,8.4716,-1.4477
6.9,0.2819,0.8429,10.3385,13.8029,14.833,1.1426
6.92,0.269,0.5223,10.3301,9.8075,11.6096,2.7084
6.94,0.162,0.6695,10.2891,12.0435,8.7999,-1.8106
6.96,0.1627,0.6021,10.2095,6.5773,5.581,-3.9703
6.98,0.1659,0.6267,10.1977,9.178,11.5228,-0.7909
7.0,0.0715,0.653,10.1662,7.8104,9.2815,-1.5132
7.02,0.1359,0.593,9.9993,2.7826,8.227,-2.4132
7.04,-0.0141,0.6026,9.9353,5.4407,8.0011,-4.4456
7.06,0.0579,0.608,9.8653,6.5515,7.2526,-3.6998
7.08,-0.0383,0.5381,9.8436,-1.1614,7.7529,-4.0131
7.1,-0.0055,0.3713,9.7564,0.8719,8.7692,-5.1025
7.12,-0.0563,0.4927,9.9081,-6.6265,8.0052,-3.4825
7.14,-0.0773,0.5074,9.9803,-1.7727,9.2345,-5.6911
7.16,-0.2417,0.47,10.0671,-2.5539,10.5351,-4.5613
7.18,-0.0066,0.4823,10.1732,-5.8083,5.6498,-2.4195
7.2,-0.2222,0.4186,10.3257,-7.2097,12.8998,-1.5912
7.22,-0.155,0.3971,10.1601,-8.7647,6.95,-2.3433
7.24,-0.1352,0.5038,10.3275,-15.8888,7.6688,-0.2254
7.26,-0.1115,0.6209,10.2949,-12.8946,9.1403,-1.1346
7.28,-0.177,0.437,10.3822,-13.772,5.9027,-1.6622
7.3,-0.2282,0.3829,10.3552,-11.8995,8.9232,-1.0284
7.32,-0.1081,0.3839,10.262,-10.5972,10.1816,-0.1326
7.34,-0.1772,0.4254,10.3134,-15.6735,10.0451,4.1096
7.36,-0.0951,0.3192,10.2843,-12.1011,9.5404,2.8225
7.38,-0.0732,0.5475,10.2216,-15.5713,6.7926,0.9324
7.4,-0.0705,0.4211,10.0791,-14.4116,6.1439,2.5496
7.42,-0.0788,0.5297,10.062,-2.2306,7.3936,4.9319
7.44,-0.0152,0.5371,10.0044,-7.2008,5.9159,1.5471
7.46,-0.1331,0.5029,10.0163,-3.0088,6.7964,5.3063
7.48,-0.0553,0.5288,9.8167,-8.7103,6.4735,1.755
7.5,0.0503,0.5261,9.8935,2.7055,8.2271,3.763
7.52,0.0842,0.7973,9.8891,4.29,8.9937,4.6155
7.54,0.0009,0.5331,9.9773,4.4701,6.1141,3.3902
7.56,0.1622,0.5379,10.0744,6.3661,9.5248,3.9327
7.58,0.0479,0.7173,10.1591,9.224,6.9752,5.1509
7.6,0.0504,0.672,10.077,6.9913,7.6555,3.1556
7.62,0.1246,0.7295,10.3022,17.1404,8.374,2.9515
7.64,0.1792,0.676,10.2468,8.9269,5.9771,2.2363
7.66,0.1153,0.7007,10.3169,11.8936,11.1584,2.5365
7.68,0.192,0.844,10.3012,11.051,8.2461,-0.1354
7.7,0.2161,0.782,10.4615,14.931,7.2213,-1.3234
7.72,0.2688,0.6557,10.4304,11.4764,8.8246,-1.8458
7.74,0.0788,0.6229,10.3286,10.7923,8.7007,-1.4552
7.76,0.1395,0.6262,10.3451,10.5967,6.8421,-0.5984
7.78,0.2139,0.7044,10.2457,9.6751,12.1878,-3.1793
7.8,0.1434,0.6364,10.2218,10.0094,8.9184,-2.0396
7.82,0.1568,0.6304,10.2154,4.7946,6.857,0.4982
7.84,0.1081,0.62,10.1421,10.949,4.5793,-3.7646
7.86,-0.0124,0.6736,10.0043,7.0125,8.9185,-6.0322
7.88,-0.0063,0.4354,9.9361,2.9183,10.2427,-4.4049
7.9,0.0131,0.7524,9.8743,5.2211,8.3614,-3.9569
7.92,0.0217,0.5668,9.8214,1.5857,6.5787,-4.3653
7.94,-0.1418,0.4399,10.0129,-2.8182,7.9858,-6.5124
7.96,0.0259,0.5428,10.0321,-6.0195,6.7818,-4.4569
7.98,-0.22,0.4353,10.0756,-2.7452,9.0287,-4.902
8.0,-0.1237,0.4402,10.0662,-9.5174,8.5023,-2.9804
8.02,-0.1597,0.3721,10.2405,-11.6301,7.8006,-1.8686
8.04,-0.1684,0.5153,10.1771,-7.1412,8.4787,-3.15
8.06,-0.1901,0.3141,10.2603,-10.9735,7.9737,-1.4857
8.08,-0.1652,0.4662,10.2885,-12.2499,7.9397,0.4216
8.1,-0.3668,0.4199,10.4837,-13.0014,8.1715,-0.27
8.12,-0.2536,0.3051,10.3494,-13.9043,10.8103,3.15
8.14,-0.2139,0.3644,10.3147,-11.1592,5.8409,0.0019
8.16,-0.2647,0.3561,10.3946,-11.5862,6.6641,-1.1478
8.18,-0.198,0.1655,10.2472,-15.8618,6.2904,1.4273
8.2,-0.0669,0.4561,10.224,-6.3511,6.9119,2.1353
8.22,-0.2409,0.4389,10.1528,-6.8751,10.0176,1.7527
8.24,-0.2982,0.3942,10.1639,-6.2297,9.1136,2.2567
8.26,-0.1952,0.4748,10.0351,-10.9672,10.7232,3.5349
8.28,-0.0446,0.4999,10.0198,-7.2577,7.069,3.6484
8.3,-0.1652,0.4553,9.804,-7.3212,6.9704,4.6021
8.32,0.0205,0.4933,9.8558,0.2785,6.0623,3.9139
8.34,0.118,0.6058,9.792,1.4268,8.4881,4.077
8.36,-0.0245,0.6937,9.9399,1.2405,10.6893,4.108
8.38,0.0678,0.583,10.0599,-0.0767,5.3738,2.3786
8.4,0.2277,0.6539,10.0599,10.1182,8.6797,0.0338
8.42,0.1352,0.7837,10.1708,7.7578,9.3217,4.839
8.44,0.1609,0.6135,10.1391,7.3517,7.853,3.5879
8.46,0.1647,0.7013,10.2432,10.9747,6.5315,1.7228
8.48,0.2735,0.7871,10.3056,9.1526,8.5594,-0.1492
8.5,0.1284,0.7198,10.3034,13.8727,7.9144,1.6309
8.52,0.0367,0.6997,10.3259,10.5096,5.6315,-0.7597
8.54,0.1929,0.8334,10.375,13.4827,7.5734,-2.8843
8.56,0.1339,0.6818,10.3535,14.5499,5.7315,-2.2653
8.58,0.2806,0.6409,10.4378,13.148,9.0807,-0.2395
8.6,0.113,0.4126,10.3139,14.1551,12.5208,-5.4723
8.62,0.1181,0.7467,10.4304,9.2889,11.2195,-0.0792
8.64,0.1289,0.6582,10.2891,13.0743,6.6114,-1.72
8.66,0.0905,0.8026,10.1263,8.0539,4.3931,-4.5904
8.68,0.1544,0.7285,10.025,6.5685,7.601,-6.0183
8.7,-0.0079,0.6116,10.0816,3.0559,10.1473,-4.8791
8.72,0.1026,0.5431,9.9359,5.6178,10.38,-4.9548
8.74,0.0426,0.6245,9.7935,-0.8015,9.9903,-3.1221
8.76,0.1152,0.4635,9.9248,2.5725,10.2655,-1.1174
8.78,-0.0168,0.7361,10.0174,-5.4024,6.1353,-3.0907
8.8,-0.0596,0.3478,10.0294,-7.9263,8.8177,-4.5241
8.82,-0.2008,0.3573,9.9445,-6.2233,7.9172,-3.0516
8.84,-0.1666,0.477,10.1842,-5.9163,7.4128,-3.4718
8.86,-0.0314,0.3938,10.2272,-10.8663,6.6528,-6.5896
8.88,-0.1234,0.2773,10.1905,-10.991,10.6583,1.1347
8.9,-0.1802,0.3434,10.3297,-8.8929,6.3393,-4.3182
8.92,-0.1884,0.4441,10.4238,-13.1901,5.4673,-0.0095
8.94,-0.1675,0.3558,10.2981,-9.9624,7.6693,1.2217
8.96,-0.2118,0.5067,10.3088,-12.5038,8.4448,-1.5388
8.98,-0.329,0.5094,10.3256,-14.1399,9.1265,-0.992
9.0,-0.1726,0.4391,10.3263,-9.465,4.6174,0.6835
9.02,-0.197,0.4208,10.3067,-6.9412,5.8167,1.8662
9.04,-0.2564,0.4622,10.2244,-7.3862,11.9858,2.6947
9.06,-0.2839,0.4376,10.2426,-10.2984,9.1834,2.1168
9.08,-0.091,0.4672,10.1484,-3.8995,7.4666,4.6404
9.1,-0.1034,0.4705,10.0391,-8.8568,6.7832,3.8158
9.12,-0.0975,0.3988,10.0566,-3.0577,7.4134,4.9362
9.14,-0.1805,0.4464,9.9561,-5.9143,6.6647,5.7999
9.16,0.073,0.5169,9.828,0.8893,7.1688,1.7483
9.18,0.1102,0.5284,9.8384,1.6281,8.0853,2.8575
9.2,-0.0188,0.7157,9.905,6.7138,7.068,3.6544
9.22,0.0369,0.4883,10.041,4.6112,8.3131,6.4709
9.24,0.0971,0.588,10.0473,5.2684,6.1555,3.2282
9.26,0.0735,0.6977,10.1404,7.7281,8.3313,2.6415
9.28,0.2579,0.593,10.2757,12.2081,6.0202,2.3038
9.3,0.125,0.5476,10.2268,8.6383,6.0783,3.4527
9.32,0.0848,0.6901,10.4072,18.8447,6.9943,0.3804
9.34,0.2737,0.7431,10.3739,12.6208,8.3964,0.7755
9.36,0.1774,0.5989,10.4494,14.4465,11.0555,0.8026
9.38,0.1458,0.5708,10.3528,11.9374,7.2129,-1.4681
9.4,0.1749,0.6995,10.379,11.3354,8.8174,-1.8139
9.42,0.1073,0.6869,10.3646,11.2705,6.6238,-0.5725
9.44,0.0718,0.5904,10.1026,11.0742,8.9692,-3.6026
9.46,0.2608,0.6152,10.1722,9.6976,8.6033,-0.2976
9.48,0.0572,0.7435,10.2259,12.6343,7.8382,-4.2535
9.5,0.1219,0.5479,10.0165,1.3163,8.5716,-0.119
9.52,0.2157,0.6253,10.0218,5.1374,6.6298,-3.4236
9.54,0.0211,0.5618,10.0092,3.4204,10.338,-2.4384
9.56,0.0223,0.8407,9.9799,1.6053,9.6685,-3.1128
9.58,0.0531,0.5146,9.8238,-1.7811,7.6102,-3.8871
9.6,-0.0268,0.4926,9.8636,-5.1507,10.0221,-1.0807
9.62,-0.1322,0.6188,10.0064,-0.7052,5.9612,-6.8359
9.64,-0.0549,0.504,9.9938,-6.6925,7.137,-4.2439
9.66,-0.1684,0.3988,10.0938,-1.1308,8.3381,-4.7105
9.68,0.019,0.4702,10.2081,-10.7937,8.4752,-4.1124
9.7,-0.1971,0.3818,10.2275,-4.8558,6.1576,-3.3238
9.72,-0.1153,0.4267,10.2593,-13.0053,8.4242,-3.2769
9.74,-0.1689,0.4916,10.3341,-8.9508,8.7586,-0.0479
9.76,-0.2813,0.4159,10.3948,-12.3267,10.3399,-0.2073
9.78,-0.1168,0.4103,10.3148,-8.5705,6.3933,-0.7006
9.8,-0.123,0.3635,10.3755,-10.7202,11.5919,0.6658
9.82,-0.2693,0.3595,10.3531,-11.1774,11.064,3.5399
9.84,-0.201,0.4887,10.1918,-9.1151,4.5353,0.816
9.86,-0.2114,0.5886,10.2392,-13.035,7.2949,2.5211
9.88,-0.1573,0.425,10.2685,-5.3019,7.0214,1.5826
9.9,-0.2476,0.4298,10.1636,-9.536,8.751,3.9894
9.92,-0.1443,0.4492,10.0001,-4.9488,8.842,1.8598
9.94,-0.1399,0.5755,10.08,-6.4854,6.2043,4.9615
9.96,0.0058,0.6052,10.0473,-7.5423,9.8917,2.8692
9.98,0.0386,0.452,9.9199,-1.1486,8.9538,4.2966
10.0,-0.0146,0.5766,9.8117,2.1607,5.6116,4.1582
10.02,-0.0472,0.5864,9.807,6.8414,5.1995,5.0189
10.04,0.0761,0.5094,9.9616,4.5082,4.5552,5.9396
10.06,0.052,0.5765,10.095,1.3432,11.2105,2.7841
10.08,0.0833,0.6208,10.1482,7.1945,7.3465,2.7231
10.1,0.1932,0.5631,10.2471,9.8957,10.287,3.6029
10.12,0.2135,0.7265,10.2665,10.5045,10.7953,1.6793
10.14,0.1668,0.6239,10.1746,12.8372,5.887,5.273
10.16,0.289,0.7395,10.3124,9.9655,7.5896,2.7465
10.18,0.1285,0.7258,10.4176,9.3521,5.0199,-0.8489
10.2,0.2059,0.5805,10.3386,9.0292,7.3277,1.5865
10.22,0.1085,0.6711,10.3434,13.0843,9.19,-0.3668
10.24,0.1948,0.7744,10.3356,13.0206,9.3211,0.1307
10.26,0.2783,0.7731,10.3245,11.1556,8.8752,-1.625
10.28,0.1691,0.8135,10.3107,7.5448,7.0222,-3.649
10.3,0.0191,0.6746,10.245,6.254,9.834,-3.5415
10.32,0.1131,0.4887,10.2168,5.4852,7.3283,-1.6987
10.34,0.1086,0.6945,10.1974,8.6871,6.837,-2.9995
10.36,0.0985,0.6339,10.0949,5.8712,6.7581,-4.3427
10.38,0.0761,0.5385,10.0067,1.1915,7.6411,-5.2858
10.4,0.1111,0.6184,9.947,1.9867,6.2508,-2.8466
10.42,0.1018,0.671,9.8236,3.7911,6.2757,-2.977
10.44,-0.0586,0.4886,9.8008,-4.8593,6.5234,-2.9998
10.46,-0.0157,0.437,9.8681,-2.9181,8.1786,-1.0827
10.48,-0.1374,0.5944,10.1581,-2.6452,8.6782,-4.2407
10.5,-0.1701,0.3801,10.1467,-5.9276,4.2743,-3.0112
10.52,-0.0678,0.5251,10.0862,-9.9475,12.7743,-3.2538
10.54,-0.3099,0.4325,10.4146,-14.3545,5.2179,-2.3866
10.56,-0.2587,0.4567,10.2041,-11.4643,10.2528,-1.5081
10.58,-0.2469,0.4125,10.4305,-9.7997,9.1135,-0.6068
10.6,-0.1749,0.4081,10.3917,-9.3084,8.2275,-3.055
10.62,-0.1696,0.4474,10.3804,-11.8378,5.5481,-0.1744
10.64,-0.1068,0.494,10.2807,-10.3309,8.8389,1.334
10.66,-0.1562,0.2973,10.2417,-10.3418,6.3207,0.7441
10.68,-0.209,0.453,10.3634,-12.6333,6.8611,2.9154
10.7,0.0188,0.4811,10.195,-8.0194,9.25,3.0001
10.72,-0.1555,0.3294,10.1903,-10.4465,8.7122,3.1369
10.74,-0.0613,0.4619,10.0943,-1.8168,7.1739,0.3807
10.76,-0.0773,0.5594,10.031,-6.5869,8.8666,5.3869
10.78,-0.1098,0.5649,10.0168,-8.8087,7.4306,5.0142
10.8,0.0461,0.4947,9.996,-0.1132,7.2653,6.4065
10.82,-0.1496,0.53,9.9501,-2.2108,6.4424,6.8567
10.84,-0.0552,0.6482,9.8984,0.8003,5.3318,5.5422
10.86,-0.0856,0.4657,9.8781,7.0555,8.4674,3.0915
10.88,0.0399,0.7902,10.0976,6.5737,7.3893,5.0645
10.9,0.0498,0.4042,10.1512,10.2519,10.4,4.0863
10.92,-0.0084,0.7042,10.1325,7.8668,11.4709,-0.2337
10.94,0.2231,0.6268,10.3072,9.8144,7.3478,2.4692
10.96,0.1085,0.6527,10.2384,9.2532,12.7997,2.9209
10.98,0.149,0.6933,10.3611,9.2151,8.1778,2.1051
11.0,0.0891,0.6866,10.3505,10.0188,5.0641,0.9533
11.02,0.0554,0.6955,10.4164,11.2263,7.0428,-0.3793
11.04,0.1914,0.6961,10.3925,11.3505,8.0305,2.5565
11.06,0.235,0.8509,10.3364,7.6394,9.3397,1.4927
11.08,0.1615,0.6275,10.2585,13.3695,6.8048,-1.8643
11.1,0.1535,0.6739,10.2772,10.6141,8.4549,-0.8174
11.12,0.1309,0.6402,10.3825,7.3066,10.4345,-4.8564
11.14,0.292,0.7066,10.2472,8.0182,6.2505,-1.835
11.16,0.1427,0.7666,10.2179,8.3656,6.4562,-1.5828
11.18,0.1016,0.5488,10.0515,5.0603,7.245,-4.5655
11.2,-0.0479,0.4854,9.9341,4.2891,8.145,-2.7215
11.22,-0.0144,0.5228,9.856,-1.9588,3.2412,-3.777
11.24,0.0411,0.5939,9.7817,0.1877,6.3211,-3.7407
11.26,0.1457,0.3083,9.8463,-0.3601,8.0764,-1.7699
11.28,0.0166,0.4473,9.944,1.0005,9.6552,-3.299
11.3,-0.1123,0.5153,10.028,-6.6349,6.6883,-4.4238
11.32,-0.1108,0.3305,10.0867,-5.4398,9.6786,-0.0131
11.34,-0.0861,0.4303,10.2154,-12.1936,6.491,-3.5906
11.36,-0.1894,0.4918,10.2072,-6.3355,8.4381,-4.274
11.38,-0.121,0.4007,10.3385,-11.4957,8.7259,-1.6078
11.4,-0.3196,0.517,10.349,-8.7381,8.0474,-2.931
11.42,-0.1555,0.3067,10.2883,-15.3466,10.7702,-3.2838
11.44,-0.2484,0.3322,10.3691,-9.3937,6.949,0.2938
11.46,-0.0398,0.3812,10.3214,-12.8656,10.643,1.8218
11.48,-0.2966,0.3724,10.3255,-17.5828,5.8908,-0.03
11.5,-0.2014,0.4453,10.2803,-7.1622,9.6303,-0.6922
11.52,-0.1679,0.3371,10.2921,-10.9746,6.4728,2.1252
11.54,-0.0783,0.6246,10.3137,-4.5325,10.1197,1.6881
11.56,-0.1408,0.4689,10.1981,-9.3519,7.6761,4.0624
11.58,-0.0703,0.5757,10.2561,-11.1805,12.0252,3.282
11.6,0.0583,0.6179,10.0923,-4.4365,6.0074,1.6213
11.62,-0.0565,0.5624,9.9659,-3.5319,6.051,5.7842
11.64,-0.06,0.5328,9.9591,-0.9884,9.8948,4.2006
11.66,-0.073,0.5766,9.822,-5.222,7.9688,2.4009
11.68,0.0423,0.5562,9.8086,-0.9474,6.0794,4.7765
11.7,-0.0246,0.4778,9.937,-1.2042,8.5058,6.7188
11.72,-0.013,0.5662,10.0564,3.4935,10.1174,5.2623
11.74,0.0353,0.5099,10.0156,6.858,4.9871,5.1792
11.76,0.0991,0.771,10.1273,6.4496,7.8004,3.9814
11.78,-0.0192,0.7319,10.1841,9.4031,6.7035,1.6347
11.8,0.1941,0.642,10.227,12.133,9.1675,0.314
11.82,0.0972,0.7302,10.3705,11.1319,9.712,0.5871
11.84,0.195,0.5915,10.3166,14.4343,7.5823,2.6921
11.86,0.1793,0.6578,10.3838,8.8228,8.2603,-0.4237
11.88,0.195,0.8618,10.4637,8.1937,6.653,-0.0863
11.9,0.2222,0.7557,10.3378,7.4134,7.893,-0.0944
11.92,0.2806,0.675,10.2446,10.79,5.6873,-2.2679
11.94,0.1968,0.6065,10.3506,14.0953,8.9446,-0.8335
11.96,0.2022,0.4303,10.2852,13.527,4.9181,-3.2602
11.98,0.1973,0.6737,10.1413,5.2537,4.8718,-4.0605
12.0,0.0807,0.789,10.1639,7.6305,8.8622,-1.9681
12.02,0.1348,0.462,10.0229,5.5806,6.738,-5.4914
12.04,0.0895,0.526,10.0033,7.9587,14.2544,-4.9626
12.06,-0.0103,0.4345,9.9209,1.7064,5.6848,-1.5809
12.08,-0.0063,0.61,9.8489,-1.1239,8.0676,-1.8878
12.1,-0.0003,0.4926,9.9083,-0.7867,9.9151,-4.0012
12.12,0.0916,0.3593,9.945,-5.8632,2.1415,-5.48
12.14,0.0113,0.3664,10.0557,-3.752,8.5375,-3.0265
12.16,-0.184,0.534,10.1361,-6.5652,8.7511,-8.4968
12.18,-0.1456,0.5627,10.1222,-6.3673,9.0967,-1.5288
12.2,-0.099,0.3648,10.2199,-12.095,5.4728,-3.5948
12.22,-0.0334,0.6468,10.3671,-6.3152,9.7297,-1.8567
12.24,-0.2769,0.3564,10.3335,-13.8671,10.5955,1.456
12.26,-0.0204,0.4907,10.426,-13.9645,8.4963,0.2889
12.28,-0.2453,0.3362,10.3941,-8.8313,6.1331,1.0561
12.3,-0.1809,0.3439,10.3825,-5.2698,9.8889,-2.8163
12.32,-0.1358,0.4033,10.3237,-10.4871,8.0008,-2.295
12.34,0.0021,0.4783,10.3903,-10.1594,7.1903,1.8796
12.36,-0.2312,0.4492,10.2587,-9.0956,8.0713,1.8894
12.38,-0.223,0.4287,10.2559,-10.0568,4.2097,2.1703
12.4,-0.0888,0.4976,10.319,-10.2235,6.1886,1.2816
12.42,-0.0888,0.4859,10.16,-4.3135,9.7262,3.1754
12.44,-0.0313,0.5879,10.1113,-1.9481,8.9641,6.6079
12.46,-0.0437,0.4016,9.9463,-4.0264,2.5462,3.8073
12.48,-0.0316,0.4734,9.8489,0.2987,7.4677,1.8922
12.5,-0.0505,0.5866,9.8025,1.1695,11.592,5.8411
12.52,0.063,0.5495,9.7903,5.1898,9.7999,2.7181
12.54,-0.0088,0.6369,9.9837,6.5493,6.8004,2.6738
12.56,0.1362,0.7049,10.1492,6.1623,7.3733,5.4733
12.58,0.2134,0.4531,10.0535,5.2014,9.7787,2.2715
12.6,0.0179,0.6555,10.2342,6.0709,10.1452,3.2327
12.62,0.1419,0.6925,10.2177,10.173,6.5531,-0.6743
12.64,0.1295,0.712,10.332,10.3495,7.3012,3.7555
12.66,0.2379,0.5602,10.3834,6.5636,6.2851,0.7673
12.68,0.284,0.6917,10.2844,12.881,11.9771,0.2127
12.7,0.1826,0.8156,10.3452,10.9006,7.2703,0.3018
12.72,0.2421,0.7091,10.3617,8.9054,10.634,0.3378
12.74,0.1045,0.6981,10.4072,12.3863,9.8381,-1.9928
12.76,0.1704,0.6659,10.2561,14.018,6.4419,-2.7179
12.78,0.2482,0.5255,10.1555,15.0966,10.6366,-2.2903
12.8,0.2286,0.7518,10.329,8.7407,9.8782,-2.1695
12.82,0.2304,0.771,10.2001,9.3722,7.5295,-1.0116
12.84,0.0268,0.6661,10.1421,7.4005,6.9867,-2.9833
12.86,0.0576,0.6909,10.0099,7.654,8.0954,-3.7958
12.88,0.0363,0.516,9.8866,0.0963,8.8109,-1.627
12.9,-0.0154,0.6545,9.8925,1.5954,4.8844,-4.1293
12.92,-0.0835,0.5775,9.8638,-3.529,7.4115,-3.3872
12.94,0.009,0.4141,10.0021,-2.6066,5.5573,-4.1973
12.96,-0.0374,0.4696,9.9688,-4.586,8.497,-5.4712
12.98,-0.2605,0.4798,10.0164,-3.7961,7.334,-1.7315
13.0,-0.1079,0.556,10.179,-8.4558,7.1804,-3.5607
13.02,-0.1653,0.4231,10.289,-10.7109,6.4073,-5.7
13.04,-0.2232,0.4601,10.3556,-8.7128,7.1786,0.0858
13.06,-0.1278,0.2984,10.243,-10.2208,7.3946,-1.6122
13.08,-0.109,0.4714,10.3936,-9.2544,9.3863,-1.6828
13.1,-0.1914,0.3915,10.3295,-12.729,7.839,0.1963
13.12,-0.3044,0.5105,10.3091,-9.5313,7.4278,-1.4147
13.14,-0.1014,0.5239,10.4307,-11.5599,3.6878,0.6844
13.16,-0.2,0.3498,10.294,-14.4446,8.0643,0.889
13.18,-0.1342,0.4048,10.2875,-7.7896,9.9416,1.5952
13.2,-0.1763,0.5188,10.2555,-4.8694,9.3828,4.7237
13.22,-0.2621,0.4925,10.1844,-8.6344,5.53,2.273
13.24,-0.2236,0.427,10.255,-8.0921,8.6163,5.1692
13.26,-0.0424,0.4916,10.0832,-7.3665,8.757,3.2405
13.28,-0.1458,0.5768,9.9907,-1.2826,6.8113,3.2997
13.3,0.0213,0.4945,9.9651,-4.5395,3.5354,3.9584
13.32,-0.1274,0.4988,9.874,-2.6623,9.8642,2.8011
13.34,0.0149,0.619,9.7873,3.2891,10.8443,2.8761
13.36,-0.0908,0.6009,9.9871,4.0351,6.146,4.1607
13.38,0.06,0.6444,9.999,3.8078,7.3911,1.8687
13.4,0.0503,0.6775,10.127,5.3585,10.5665,4.162
13.42,0.1464,0.7394,10.1033,8.0669,4.3925,2.9689
13.44,0.1199,0.7457,10.2982,7.3986,5.9293,3.5005
13.46,0.0989,0.783,10.2276,5.9846,9.393,1.2734
13.48,0.2129,0.5771,10.3587,9.9378,9.0203,4.1167
13.5,0.2129,0.8247,10.2901,10.4932,6.3144,0.2375
13.52,0.1303,0.6037,10.4043,12.1814,7.4827,0.3127
13.54,0.3404,0.6155,10.3228,15.8272,5.8256,0.5494
13.56,0.1733,0.6354,10.3849,18.2339,5.7829,-1.3206
13.58,0.1151,0.7037,10.4334,9.741,8.6366,-1.1475
13.6,0.1339,0.7029,10.3955,10.9816,5.3308,-0.169
13.62,0.1137,0.7673,10.3652,10.5464,6.5967,-3.0308
13.64,0.0677,0.6389,10.1426,8.8207,3.3553,-2.0897
13.66,-0.0368,0.6157,10.1942,10.0016,8.8313,-1.4071
13.68,0.1409,0.6198,10.2127,7.2116,9.24,-4.7512
13.7,0.0431,0.5703,9.9931,4.178,8.485,-3.0238
13.72,-0.0236,0.677,9.9975,3.2472,10.2923,-4.8745
13.74,0.0526,0.6387,9.8986,0.6675,6.3482,-3.263
13.76,-0.0934,0.5977,9.8151,-1.2264,9.0835,-1.9748
13.78,0.0314,0.6245,9.9145,-6.8757,4.7511,-4.8217
13.8,-0.0164,0.4311,10.0102,-4.2576,5.773,-4.5245
13.82,-0.0634,0.6117,10.1018,-3.401,7.7949,-6.1448
13.84,-0.062,0.4148,10.1434,-9.6724,8.4068,-0.8044
13.86,-0.1093,0.4846,10.1284,-12.3394,11.9401,-5.1207
13.88,-0.1088,0.6336,10.2719,-13.1544,6.8117,-4.6653
13.9,-0.1176,0.4293,10.3216,-9.7817,9.0633,-1.8505
13.92,-0.2051,0.4849,10.3536,-8.3858,6.6436,0.6519
13.94,-0.2884,0.4646,10.4257,-13.5892,7.9181,-0.6363
13.96,-0.2374,0.335,10.3892,-11.3841,10.9139,-0.5742
13.98,-0.1277,0.2859,10.3496,-7.7586,11.0174,1.5141
14.0,-0.2101,0.2883,10.3328,-12.1485,7.6608,0.6049
14.02,-0.0777,0.4261,10.2074,-10.3102,8.8542,3.9023
14.04,-0.2483,0.3963,10.2842,-9.0648,7.4171,4.5863
14.06,-0.1339,0.4584,10.1627,-5.6206,4.4295,0.3221
14.08,-0.1256,0.3738,10.1068,-6.461,6.8217,2.6205
14.1,-0.0922,0.6005,10.034,-4.0252,9.6588,2.418
14.12,-0.1447,0.5104,10.0825,-9.7805,4.2909,2.665
14.14,-0.0572,0.6076,9.9995,-4.6922,7.6857,2.6633
14.16,0.1091,0.4834,9.7256,-1.3392,8.5812,6.1606
14.18,0.0667,0.5885,9.8703,0.9598,10.5185,3.323
14.2,0.0104,0.5691,9.94,3.6704,6.1698,3.2329
14.22,0.1668,0.6003,10.0375,4.2019,7.3379,3.4703
14.24,-0.0491,0.5669,10.0897,3.6147,8.2615,4.9124
14.26,0.1149,0.6384,10.1253,6.1937,7.6682,1.8914
14.28,0.1806,0.6672,10.227,10.394,9.3763,1.5846
14.3,0.1207,0.6172,10.2116,11.7637,7.6722,5.0769
14.32,0.1474,0.6948,10.3718,15.609,8.1113,0.9688
14.34,0.1885,0.6315,10.3544,9.7767,10.1098,0.7461
14.36,0.1808,0.7973,10.3725,10.8602,10.0493,2.0809
14.38,0.2276,0.77,10.4306,9.9435,7.526,0.5026
14.4,0.1985,0.6625,10.3653,11.0966,9.5684,-2.2321
14.42,0.3748,0.7683,10.2781,10.6586,6.1691,0.1986
14.44,0.037,0.6712,10.1771,12.7894,6.9422,-1.2424
14.46,0.1256,0.8743,10.3182,8.4929,6.4445,-2.1052
14.48,0.1681,0.6791,10.1571,7.1189,7.239,-3.2227
14.5,0.0757,0.6649,10.1906,10.0612,8.095,-2.0287
14.52,0.1453,0.5906,10.1118,9.3621,6.2851,-3.1762
14.54,0.0573,0.6016,10.0043,1.2127,12.0003,-4.0522
14.56,0.0143,0.4707,9.8522,4.8627,7.4477,-5.2016
14.58,0.0169,0.4506,9.7703,-1.5093,8.9231,-2.6496
14.6,-0.0349,0.4789,9.84,-1.7873,6.3512,-4.5113
14.62,-0.0557,0.3282,10.0799,-0.5143,9.1925,-4.8561
14.64,-0.0865,0.5011,10.038,-5.3299,6.1578,-9.9527
14.66,-0.088,0.3981,10.1664,-4.8812,8.2476,-1.018
14.68,0.0131,0.2828,10.1424,-11.0644,9.3082,-0.8348
14.7,-0.1322,0.4279,10.2152,-9.5617,6.2229,-2.2973
14.72,-0.2091,0.5312,10.3646,-10.549,8.4568,-1.824
14.74,-0.1749,0.4374,10.3681,-9.1068,6.9238,-3.5056
14.76,-0.3179,0.3838,10.3998,-11.2081,7.9326,0.7007
14.78,-0.1715,0.4871,10.4305,-10.9654,8.1588,-3.9579
14.8,-0.1666,0.3786,10.4039,-11.7531,9.3643,1.043
14.82,-0.2028,0.3465,10.2191,-9.0593,9.7737,0.9187
14.84,-0.3597,0.528,10.3522,-8.6321,10.3921,2.3207
14.86,0.0011,0.3333,10.333,-12.024,7.033,3.7051
14.88,-0.18,0.4474,10.2677,-11.6709,12.4001,3.4461
14.9,-0.0541,0.3469,10.1845,-8.0085,4.0098,2.5499
14.92,-0.1442,0.4246,10.0322,-6.9766,10.1729,4.4605
14.94,-0.0122,0.4097,10.0818,-8.034,5.3503,0.6488
14.96,-0.1689,0.4565,9.9442,-2.7597,13.0289,4.5574
14.98,0.0674,0.4366,9.9344,-3.2528,13.0504,1.9019
