time_s,Ax,Ay,Az,Gx,Gy,Gz
0.0,0.121,-0.482,9.7747,2.4717,-8.0857,3.1478
0.02,0.0176,-0.5391,9.8293,-0.4423,-7.7755,2.9992
0.04,-0.024,-0.5981,9.9597,0.6993,-7.2275,4.325
0.06,0.1057,-0.4456,10.0378,6.1153,-8.6368,3.6208
0.08,0.0375,-0.4755,10.1317,8.0003,-9.1396,4.6325
0.1,0.2353,-0.495,10.3288,10.5425,-12.1323,2.41
0.12,0.099,-0.5486,10.2448,14.148,-9.5864,4.1046
0.14,0.1788,-0.468,10.2627,13.375,-14.9993,0.2945
0.16,0.1515,-0.3526,10.3846,8.208,-10.6798,0.5237
0.18,0.0633,-0.4603,10.3674,10.6594,-11.1289,0.636
0.2,0.3369,-0.2832,10.4019,13.7145,-6.5519,1.1139
0.22,0.2717,-0.4825,10.3462,12.6424,-10.096,-3.3038
0.24,0.2202,-0.3468,10.3316,10.674,-9.8407,-1.9723
0.26,0.182,-0.4217,10.3353,12.4064,-6.7685,-1.2006
0.28,0.2072,-0.5237,10.257,9.6624,-10.661,-3.367
0.3,0.2291,-0.536,10.2963,8.081,-9.8198,-2.4855
0.32,0.1089,-0.4135,10.112,9.9267,-8.1819,-3.7296
0.34,-0.0191,-0.3889,10.1039,5.8697,-9.0973,-3.9988
0.36,0.1795,-0.3878,10.0004,6.6174,-10.2372,-6.0643
0.38,0.1615,-0.5686,9.9671,2.09,-9.0154,-3.6482
0.4,0.0318,-0.5215,9.8475,1.5128,-8.2434,-4.528
0.42,0.0049,-0.6652,9.8737,-0.5858,-9.0112,-2.747
0.44,0.0344,-0.6394,9.8507,-0.7593,-9.178,-7.0127
0.46,0.0783,-0.6511,9.8706,-3.0838,-11.4143,-5.4687
0.48,-0.0684,-0.5646,10.0157,-3.4833,-7.5746,-3.4003
0.5,-0.1858,-0.6212,10.1254,-9.3437,-8.0942,-3.0227
0.52,-0.0768,-0.6635,10.2067,-7.3283,-5.1163,-1.9579
0.54,-0.2269,-0.7015,10.2246,-9.85,-10.2622,-1.7034
0.56,-0.3238,-0.6269,10.3637,-8.5078,-9.5046,-0.3883
0.58,-0.1619,-0.6117,10.426,-14.5313,-11.551,-0.8403
0.6,-0.2076,-0.6735,10.273,-13.5555,-8.3391,1.2577
0.62,-0.2372,-0.6792,10.4899,-9.4534,-4.92,0.7577
0.64,-0.0688,-0.7003,10.2725,-15.6669,-4.9507,2.7244
0.66,-0.243,-0.6836,10.3338,-14.6608,-9.176,0.3996
0.68,-0.246,-0.8541,10.2943,-13.2166,-9.9733,-1.1421
0.7,-0.2097,-0.4999,10.3588,-12.4785,-8.1905,3.7053
0.72,-0.1535,-0.8356,10.2914,-6.1538,-7.0744,1.915
0.74,-0.085,-0.6102,10.2016,-7.3673,-6.1898,3.8011
0.76,0.0735,-0.6178,10.2191,-8.2659,-10.1404,1.4678
0.78,-0.02,-0.6047,10.0816,-8.415,-10.1283,3.8494
0.8,-0.1105,-0.6412,10.0323,-3.7044,-7.9288,1.8087
0.82,0.0941,-0.5406,9.8217,-1.467,-8.9942,4.4492
0.84,0.0334,-0.6043,9.7426,1.0948,-7.7285,6.0912
0.86,0.0818,-0.4141,10.0731,2.9941,-5.629,5.1431
0.88,0.1204,-0.5693,9.8675,3.4234,-9.3599,3.2903
0.9,0.2972,-0.5917,10.119,3.9151,-10.5257,2.1955
0.92,0.2083,-0.4743,10.1404,7.5035,-8.2785,1.6859
0.94,0.2347,-0.4274,10.19,10.4963,-6.5839,2.6234
0.96,0.1563,-0.3928,10.1924,8.0162,-7.4017,0.9383
0.98,0.2214,-0.4054,10.3006,9.5783,-4.0332,2.1552
1.0,0.2095,-0.3745,10.3435,8.8885,-6.9816,3.5477
1.02,0.3215,-0.4948,10.3863,13.3323,-9.2084,-1.0258
1.04,0.1005,-0.3198,10.304,12.4849,-8.9758,0.6709
1.06,0.3718,-0.4366,10.3029,8.5218,-7.7954,-0.1514
1.08,0.2228,-0.3908,10.2815,10.6964,-5.6466,-0.9589
1.1,0.1892,-0.4801,10.2354,8.3196,-10.2684,-2.4517
1.12,0.1401,-0.3824,10.2165,9.911,-9.5076,-3.6776
1.14,0.2813,-0.5154,10.2302,5.7933,-7.9259,-2.4137
1.16,0.0938,-0.4587,10.3062,5.2461,-8.6591,-5.1408
1.18,0.1241,-0.3239,10.1259,4.7579,-3.9617,-2.4672
1.2,0.0745,-0.424,9.9468,1.7987,-8.5752,-2.7623
1.22,0.0199,-0.4809,9.9297,1.3119,-9.4966,-6.7999
1.24,0.1343,-0.4871,9.9392,-1.3021,-10.9175,-2.2078
1.26,-0.0319,-0.4864,9.7636,0.1775,-8.7311,-1.7119
1.28,-0.0978,-0.5908,9.933,-4.4035,-6.7354,-4.3706
1.3,0.0442,-0.678,10.0595,-6.8709,-8.0248,-2.4949
1.32,-0.1011,-0.6062,10.0439,-5.8131,-6.1058,-3.4875
1.34,-0.0895,-0.6516,10.0721,-4.9803,-10.8086,-5.0776
1.36,-0.1623,-0.658,10.1897,-8.7448,-8.2893,-4.5961
1.38,-0.0374,-0.7047,10.3184,-7.8347,-5.9236,-4.0953
1.4,-0.1093,-0.7649,10.3192,-9.1428,-7.6325,0.8983
1.42,-0.2164,-0.5995,10.2816,-12.1118,-9.8438,-0.9302
1.44,-0.116,-0.6322,10.3564,-8.6404,-5.5342,-2.2046
1.46,-0.2859,-0.6065,10.3916,-7.5819,-6.7624,-1.3539
1.48,-0.1953,-0.7569,10.4104,-15.2723,-11.6341,0.986
1.5,-0.3723,-0.7631,10.3994,-15.6775,-10.1942,1.9545
1.52,-0.238,-0.5664,10.2683,-9.6505,-5.7262,0.8067
1.54,-0.126,-0.605,10.2254,-13.8638,-9.4859,-0.1006
1.56,0.0222,-0.6098,10.309,-5.9833,-5.6619,-0.8421
1.58,-0.1962,-0.727,10.0845,-9.5132,-8.3534,1.3417
1.6,-0.1071,-0.4485,9.9864,-7.1906,-6.9823,2.5062
1.62,-0.1832,-0.7736,10.0049,-10.4933,-7.5011,6.2177
1.64,-0.0297,-0.519,9.9281,-2.1418,-6.7207,3.2001
1.66,-0.0094,-0.7375,9.8611,3.1048,-9.2804,0.7835
1.68,0.0536,-0.3789,9.8215,-1.9921,-6.1399,5.0726
1.7,-0.0136,-0.5216,10.0013,3.7676,-7.4756,5.6247
1.72,0.1212,-0.4843,10.0525,2.1548,-5.5636,0.8084
1.74,0.0782,-0.4957,9.9956,6.3439,-5.4935,2.9761
1.76,0.1672,-0.4963,10.0845,9.6597,-5.3522,4.9392
1.78,0.0526,-0.4273,10.3059,8.5244,-7.7261,0.8
1.8,0.2554,-0.4146,10.3014,7.8223,-10.9141,3.1979
1.82,0.1351,-0.4921,10.3513,8.5082,-6.645,3.3168
1.84,0.0542,-0.5257,10.3638,11.1424,-7.7365,0.7444
1.86,0.3457,-0.3857,10.4333,5.211,-10.7947,1.2268
1.88,0.1939,-0.5196,10.4,9.8263,-11.0396,2.6178
1.9,0.3207,-0.4783,10.3814,11.3037,-9.8326,-0.2265
1.92,0.2481,-0.3597,10.366,9.2094,-7.4174,-2.3636
1.94,0.1927,-0.5701,10.2903,11.3958,-6.5906,-2.0257
1.96,0.1042,-0.3697,10.2421,12.515,-9.1572,-1.3987
1.98,0.2056,-0.4208,10.302,10.6181,-8.7098,-4.5173
2.0,0.1602,-0.5463,10.1523,9.0952,-6.357,-2.5672
2.02,0.1743,-0.4904,10.0917,3.4381,-9.3113,-4.1166
2.04,0.1589,-0.5246,9.9244,0.5678,-7.2625,-5.3833
2.06,0.0003,-0.5486,9.9095,3.8232,-6.0774,-5.2892
2.08,-0.0625,-0.674,9.7827,-3.1561,-11.4997,-4.0475
2.1,-0.0397,-0.7106,9.8263,-2.0739,-9.6227,-4.7857
2.12,-0.048,-0.6903,9.9004,-0.24,-8.633,-2.757
2.14,-0.0913,-0.6099,10.0016,-3.7431,-6.764,-1.5895
2.16,-0.1414,-0.6046,10.0512,-7.8038,-9.5537,-6.4078
2.18,-0.1442,-0.5068,10.2032,-9.9888,-9.2265,-4.6524
2.2,-0.0994,-0.688,10.2123,-11.1077,-7.9531,-1.9665
2.22,-0.2996,-0.5504,10.3709,-9.1225,-10.9414,-1.6453
2.24,-0.277,-0.6934,10.3307,-7.5551,-9.0619,-1.0244
2.26,-0.1475,-0.5527,10.3667,-15.2508,-7.5919,-0.9986
2.28,-0.1838,-0.8526,10.4289,-14.3045,-6.6034,-0.3204
2.3,-0.0849,-0.82,10.3211,-15.5586,-6.8506,-3.7365
2.32,-0.1143,-0.6642,10.3438,-8.6846,-9.6648,0.4823
2.34,-0.1352,-0.6608,10.3093,-10.1726,-8.4576,2.1376
2.36,-0.2343,-0.6455,10.2763,-15.2391,-9.7939,2.1524
2.38,-0.1608,-0.5847,10.1541,-7.7345,-9.3204,4.7124
2.4,-0.2571,-0.5868,10.2514,-8.8822,-7.1504,2.5826
2.42,-0.1917,-0.6316,10.1364,-5.9111,-7.2859,1.7917
2.44,-0.0747,-0.608,10.0091,-5.2626,-10.641,3.176
2.46,-0.1396,-0.608,9.9536,1.9688,-11.6037,7.3614
2.48,-0.0789,-0.5248,9.9467,2.7569,-6.6069,3.2983
2.5,0.024,-0.587,9.7481,-1.736,-8.9337,3.4575
2.52,0.0365,-0.6514,9.8772,3.2442,-7.8784,4.1568
2.54,0.0157,-0.503,10.0313,1.8634,-10.3399,2.6458
2.56,0.1349,-0.4699,10.0463,6.5793,-9.2409,1.5556
2.58,0.0989,-0.5404,10.0703,4.8355,-5.0213,6.1008
2.6,0.19,-0.6571,10.2902,7.3266,-10.5388,3.1395
2.62,0.1216,-0.3587,10.3058,9.5975,-5.4033,4.6264
2.64,0.2105,-0.4921,10.2894,12.707,-10.4233,2.9274
2.66,0.1995,-0.3557,10.1847,16.1649,-7.576,-0.2421
2.68,0.1962,-0.328,10.3611,13.7957,-10.104,3.3971
2.7,0.2446,-0.3803,10.4257,9.4542,-9.9602,-0.8284
2.72,0.1337,-0.4545,10.2561,9.4058,-9.7532,0.1889
2.74,0.1768,-0.4364,10.4064,10.2701,-7.1293,-0.7874
2.76,0.2385,-0.3708,10.4036,12.5232,-11.3895,-1.1514
2.78,0.1366,-0.5272,10.2563,8.1952,-11.3959,-0.2466
2.8,-0.0416,-0.2589,10.2572,10.9592,-5.7927,-2.0293
2.82,0.2074,-0.5031,10.2654,11.3809,-10.2429,-2.1433
2.84,0.0058,-0.5446,10.1625,7.866,-7.959,-4.486
2.86,0.0554,-0.4039,9.9991,3.0517,-7.8551,-2.9417
2.88,0.0469,-0.5238,9.9688,7.264,-7.8786,-1.6925
2.9,-0.0671,-0.4901,9.8669,2.3397,-6.4562,-7.2932
2.92,0.0631,-0.5855,9.8234,-1.4796,-6.3844,-5.314
2.94,-0.0381,-0.5446,9.9906,-0.9472,-10.6295,-3.5644
2.96,-0.1592,-0.6345,10.0795,-6.2314,-6.0166,-5.6048
2.98,-0.0705,-0.4942,9.9912,-2.623,-5.7398,-3.5005
3.0,-0.245,-0.5695,10.1006,-5.5355,-7.4414,-1.4103
3.02,-0.1415,-0.7063,10.1088,-8.6269,-11.8416,-2.8109
3.04,-0.0438,-0.5616,10.1731,-10.296,-6.8621,-0.823
3.06,-0.186,-0.7304,10.352,-8.4235,-13.3314,-1.8625
3.08,-0.1237,-0.5857,10.4823,-13.4801,-10.7025,-1.5153
3.1,-0.047,-0.7208,10.3807,-11.5485,-13.4572,0.297
3.12,-0.0642,-0.6873,10.3786,-13.1876,-8.2722,1.3292
3.14,-0.1358,-0.6721,10.2722,-13.3103,-9.3629,1.6551
3.16,-0.1162,-0.6575,10.3401,-12.8319,-8.1912,0.9255
3.18,-0.233,-0.7844,10.2826,-7.7579,-8.3907,3.5114
3.2,-0.0654,-0.575,10.3579,-13.2488,-8.5496,3.9803
3.22,-0.0954,-0.61,10.1975,-7.8892,-8.2682,4.8846
3.24,-0.0733,-0.7124,10.1118,-7.003,-9.2434,1.7742
3.26,-0.0917,-0.7058,10.1898,-8.1568,-9.559,4.3072
3.28,-0.0208,-0.76,10.0078,-2.5168,-7.9602,4.5041
3.3,-0.0791,-0.5726,9.8562,-6.5529,-12.119,3.3192
3.32,0.0758,-0.5247,9.8486,-2.0039,-6.3316,4.4408
3.34,0.2707,-0.5086,9.7558,-0.5387,-6.9755,5.6575
3.36,0.1245,-0.4997,9.8816,0.8874,-6.3161,3.1188
3.38,0.0628,-0.5215,10.0774,6.6133,-6.2499,0.7944
3.4,0.1274,-0.3678,10.0982,4.6882,-7.7386,3.4955
3.42,0.0705,-0.5856,10.1264,6.897,-10.499,4.4942
3.44,0.2643,-0.4619,10.2249,4.8581,-9.8137,5.8253
3.46,0.1385,-0.4701,10.2056,5.5044,-6.7357,3.0238
3.48,0.2189,-0.4763,10.3381,8.1273,-7.7844,0.9567
3.5,0.2272,-0.257,10.2955,12.9923,-7.5544,-1.1044
3.52,0.1635,-0.3857,10.3696,12.3583,-6.9488,0.1196
3.54,0.216,-0.5675,10.2931,11.9663,-11.5009,0.3467
3.56,0.1511,-0.3308,10.4364,13.1704,-10.295,-2.2243
3.58,0.2619,-0.4989,10.1952,10.74,-8.5259,-1.1659
3.6,0.1709,-0.2962,10.3079,12.0853,-7.9659,-0.7105
3.62,0.1943,-0.6123,10.3167,9.1019,-9.3234,-1.3089
3.64,0.0469,-0.5263,10.211,4.2263,-10.961,-3.4225
3.66,0.1169,-0.5355,10.1402,9.2527,-5.3605,-1.6103
3.68,0.132,-0.3125,10.1646,7.0973,-8.7699,-2.4354
3.7,0.0508,-0.637,10.0897,4.3298,-12.7658,-4.1903
3.72,-0.0243,-0.5981,10.0015,1.3842,-8.1421,-1.8569
3.74,-0.0769,-0.4739,9.8205,0.4102,-7.2805,-3.8732
3.76,-0.1343,-0.5769,9.8835,-0.5268,-6.5904,-3.496
3.78,-0.1574,-0.6162,9.861,-6.4252,-10.2574,-4.2608
3.8,-0.0869,-0.5661,9.8325,-4.9104,-4.354,-3.4122
3.82,-0.1605,-0.7585,10.0698,-4.1358,-6.3268,-2.4498
3.84,-0.177,-0.6439,10.2133,-5.0473,-5.9234,-3.4742
3.86,-0.1715,-0.611,10.1619,-10.0879,-9.7304,-1.5744
3.88,-0.1886,-0.6182,10.3534,-12.842,-12.3604,-2.3023
3.9,-0.2318,-0.6984,10.3305,-10.379,-10.2869,-3.7263
3.92,-0.2189,-0.6471,10.2311,-12.4214,-7.5822,0.9936
3.94,-0.1557,-0.7713,10.298,-13.4534,-9.111,-0.7474
3.96,-0.1545,-0.8066,10.3802,-13.1201,-9.0034,0.2232
3.98,-0.2489,-0.6999,10.3509,-14.3219,-6.9863,1.2814
4.0,-0.2518,-0.6188,10.3056,-10.3342,-2.6403,0.3231
4.02,-0.1385,-0.6673,10.2119,-12.5148,-9.4029,1.1898
4.04,-0.0903,-0.696,10.2102,-12.2816,-6.6068,0.9655
4.06,-0.2534,-0.5309,10.2358,-8.7928,-5.1015,2.4384
4.08,-0.3728,-0.6193,10.0668,-5.5319,-7.99,3.6827
4.1,-0.0829,-0.6876,10.1726,-1.269,-7.6978,5.4971
4.12,-0.0906,-0.5408,9.9343,-5.7852,-8.2512,3.3482
4.14,0.0174,-0.3928,9.9275,-1.0304,-9.4787,3.6148
4.16,0.0657,-0.5334,9.7275,-4.0976,-9.4349,5.3066
4.18,-0.0169,-0.5902,9.8929,4.1784,-7.4176,2.7129
4.2,0.0786,-0.5828,9.9907,4.147,-7.3523,2.1249
4.22,0.0932,-0.5617,10.0002,9.0733,-9.34,2.1113
4.24,0.1071,-0.2926,10.0734,3.6319,-3.7212,5.8834
4.26,0.1401,-0.5202,10.1714,11.5779,-6.6383,-0.3929
4.28,0.1406,-0.4935,10.2153,3.2831,-7.307,1.239
4.3,0.2494,-0.411,10.2736,13.7188,-9.3933,6.0495
4.32,0.2849,-0.4948,10.3035,14.4498,-9.8315,2.5627
4.34,0.1575,-0.1974,10.3886,9.8645,-6.9208,0.8756
4.36,0.2337,-0.4733,10.3569,12.9165,-5.3186,-0.5012
4.38,0.1586,-0.4339,10.4084,11.4032,-5.4169,0.308
4.4,0.2805,-0.3828,10.3544,8.7975,-5.8368,2.0509
4.42,0.2256,-0.3854,10.3241,8.1439,-7.9175,-1.8703
4.44,0.2644,-0.3709,10.3061,13.0804,-6.3692,-1.8751
4.46,0.0889,-0.3857,10.2394,8.5517,-7.659,-1.1309
4.48,0.2083,-0.3503,10.3496,8.673,-11.7073,-1.1083
4.5,0.1208,-0.4744,10.0257,5.3361,-6.5213,-3.9825
4.52,0.0401,-0.4535,10.002,6.3787,-6.8196,-2.561
4.54,0.0943,-0.5446,9.9814,3.0777,-6.6265,-2.539
4.56,-0.0714,-0.3341,9.9508,0.5792,-8.3564,-5.1482
4.58,0.1138,-0.5939,9.7176,0.1217,-9.028,-2.3731
4.6,0.0305,-0.6719,9.8713,-1.2106,-10.2239,-2.166
4.62,-0.0421,-0.6838,9.935,-2.886,-6.5178,-3.5179
4.64,0.1218,-0.5696,10.0234,-3.3979,-10.641,-4.6396
4.66,-0.0866,-0.4387,10.2175,-4.6497,-6.2427,-3.2112
4.68,-0.1142,-0.5682,10.146,-7.5295,-8.068,-3.7698
4.7,-0.055,-0.7303,10.124,-9.9471,-7.8392,-5.1901
4.72,-0.1391,-0.5505,10.3476,-16.679,-8.2849,-0.6978
4.74,-0.1808,-0.5326,10.2665,-13.0449,-2.5835,-1.4851
4.76,-0.1661,-0.5929,10.2477,-8.6732,-10.1901,-0.3615
4.78,-0.1645,-0.9747,10.3572,-17.0786,-9.0134,1.4013
4.8,-0.1362,-0.7841,10.353,-13.8567,-3.7743,1.1973
4.82,-0.3374,-0.5724,10.3774,-6.4364,-8.8156,0.4243
4.84,-0.12,-0.77,10.1735,-12.497,-7.5397,4.1931
4.86,-0.2464,-0.6661,10.3051,-12.0702,-3.8508,2.1639
4.88,-0.2769,-0.8376,10.1822,-11.2949,-8.1017,4.1149
4.9,-0.1576,-0.653,10.1088,-10.1414,-10.1927,2.8468
4.92,-0.1888,-0.5761,10.0134,-5.8588,-5.1898,3.9269
4.94,-0.0123,-0.6233,9.9872,-2.2173,-6.2422,4.8388
4.96,0.0585,-0.5864,9.9446,-2.7326,-9.2392,3.6723
4.98,-0.136,-0.5682,9.966,-4.5871,-8.8032,4.4565
5.0,0.0152,-0.5412,9.9033,0.5229,-7.3604,7.3937
5.02,-0.0854,-0.3675,9.9575,-1.5757,-10.0113,4.5303
5.04,0.0357,-0.6123,9.984,2.4694,-7.2766,5.1493
5.06,-0.0306,-0.4039,9.9159,7.7052,-7.7982,3.3887
5.08,0.1955,-0.408,10.0936,5.3458,-6.406,2.6433
5.1,0.1445,-0.511,10.1608,10.834,-7.1143,2.2673
5.12,0.0268,-0.4149,10.1569,9.4707,-7.6442,2.1021
5.14,0.2882,-0.5253,10.1871,9.6871,-9.0392,2.1691
5.16,0.123,-0.3396,10.3247,11.9757,-2.2015,1.0457
5.18,0.0256,-0.4072,10.3465,11.563,-10.8498,-0.4641
5.2,0.1688,-0.2893,10.4334,9.3754,-9.6357,-2.0754
5.22,0.2218,-0.464,10.3375,8.2612,-7.7638,-1.4468
5.24,0.1794,-0.4118,10.3946,14.7824,-6.5571,0.5378
5.26,0.2448,-0.3811,10.3509,12.6313,-7.2079,-2.3867
5.28,0.269,-0.4677,10.2597,7.3654,-6.4752,-1.3709
5.3,0.0931,-0.4396,10.1797,9.376,-6.9344,-2.4116
5.32,0.016,-0.4149,10.2359,12.9738,-10.6376,-4.1128
5.34,0.1447,-0.5134,10.1102,7.3766,-7.8861,-0.7518
5.36,0.0765,-0.5003,9.9236,4.6201,-7.2092,-2.6617
5.38,-0.098,-0.5078,10.0623,3.0615,-9.1903,-3.7159
5.4,-0.0011,-0.6051,9.8976,-1.3195,-7.0958,-3.6259
5.42,0.0919,-0.5042,9.8349,2.058,-6.5076,-2.8449
5.44,0.0456,-0.6645,9.7955,-1.5733,-8.9624,-5.1594
5.46,-0.0841,-0.6994,10.0388,-3.3695,-6.8954,-5.5803
5.48,0.0348,-0.6111,10.0583,-7.9325,-9.0343,-1.411
5.5,0.0111,-0.6483,10.0789,-8.4136,-7.6605,-4.4328
5.52,-0.1233,-0.6499,10.1759,-7.5608,-7.9575,-2.5315
5.54,-0.1609,-0.6001,10.2118,-8.9275,-7.1407,-2.557
5.56,-0.2458,-0.6624,10.1095,-7.0057,-8.5238,-4.0829
5.58,-0.1577,-0.8016,10.3365,-7.999,-9.9942,-0.0267
5.6,-0.1493,-0.7987,10.3168,-9.3832,-7.4772,-1.6919
5.62,-0.2073,-0.7039,10.2675,-11.7817,-9.4825,0.1437
5.64,-0.1852,-0.686,10.3498,-10.7862,-7.4042,-2.9147
5.66,-0.146,-0.5512,10.1933,-12.5896,-7.1537,1.8517
5.68,-0.2033,-0.6706,10.4346,-11.2175,-6.1544,1.2402
5.7,-0.1524,-0.7687,10.3003,-8.5469,-9.9202,3.2981
5.72,-0.2246,-0.7953,10.3105,-8.9381,-8.3994,2.9441
5.74,-0.1291,-0.7421,10.2055,-7.607,-10.4686,2.7742
5.76,-0.1509,-0.6644,10.145,-9.7744,-9.5259,0.9227
5.78,0.0158,-0.6576,10.0783,-6.8135,-9.6351,3.88
5.8,0.0098,-0.5517,9.9155,-6.0764,-4.5974,5.3199
5.82,-0.0146,-0.5587,9.9502,0.3705,-7.6884,3.3374
5.84,-0.0667,-0.5278,9.749,-3.3647,-6.366,4.6758
5.86,0.2366,-0.4739,9.9299,2.198,-7.4272,2.1287
5.88,0.0255,-0.441,9.9721,5.0226,-2.5822,2.4262
5.9,0.1469,-0.4541,10.0729,6.3791,-8.7006,1.9668
5.92,0.0897,-0.4392,10.2112,9.3938,-7.3881,1.9707
5.94,0.3725,-0.518,10.1567,9.0023,-9.2306,4.5749
5.96,0.1484,-0.5106,10.2034,8.1688,-6.8619,-0.9546
5.98,0.1473,-0.3982,10.327,11.1616,-6.437,1.679
6.0,0.2446,-0.3956,10.3085,9.5778,-7.6345,2.1084
6.02,0.2657,-0.3277,10.3492,10.5594,-6.5991,2.2791
6.04,0.2597,-0.2673,10.2698,11.5391,-7.2082,-1.0563
6.06,0.2156,-0.3588,10.437,14.7933,-4.9293,0.1142
6.08,0.233,-0.5308,10.2956,17.2353,-9.8662,0.3145
6.1,0.1445,-0.4428,10.2662,11.8049,-9.5645,-3.7369
6.12,0.0152,-0.2946,10.278,10.9066,-8.8289,-3.8233
6.14,0.1091,-0.5552,10.3039,5.9198,-5.1005,-1.4318
6.16,0.0669,-0.2611,10.1076,9.8277,-6.7834,-1.4208
6.18,0.1294,-0.4088,10.135,4.2844,-3.8807,-4.4928
6.2,0.1786,-0.5627,9.9311,5.7738,-7.567,-1.724
6.22,0.0377,-0.6011,9.8979,2.3373,-5.7351,-5.202
6.24,-0.0287,-0.5031,9.8735,1.1593,-6.3554,-2.4348
6.26,-0.0406,-0.6334,9.8135,0.5466,-2.5779,-2.3837
6.28,-0.1005,-0.6304,9.8292,-5.2031,-8.6165,-3.7644
6.3,-0.0643,-0.5199,9.9114,-4.8195,-7.3972,-2.2844
6.32,-0.0355,-0.6694,9.9888,-2.2397,-5.3479,-0.8674
6.34,-0.1103,-0.6772,10.2382,-8.0886,-8.3124,-3.6378
6.36,-0.094,-0.7497,10.3028,-10.212,-8.1469,-2.9077
6.38,-0.2788,-0.6455,10.2322,-8.5018,-5.2487,-3.3808
6.4,-0.3249,-0.7456,10.2661,-12.1978,-8.3038,-2.234
6.42,-0.1031,-0.7504,10.2018,-11.5937,-8.8592,-0.7156
6.44,-0.1648,-0.6432,10.3483,-15.334,-4.4024,0.4437
6.46,-0.1301,-0.5728,10.3075,-12.9529,-7.633,0.5073
6.48,-0.1309,-0.8162,10.4041,-9.4185,-10.5863,-1.2362
6.5,-0.1367,-0.6642,10.4148,-14.2075,-8.3857,1.0095
6.52,-0.2583,-0.7656,10.2859,-8.7866,-4.5913,2.7117
6.54,-0.0117,-0.5522,10.1731,-7.9877,-8.8037,2.228
6.56,-0.1375,-0.6418,10.3181,-13.513,-9.7927,3.8495
6.58,-0.0295,-0.7131,10.2172,-10.7889,-9.7486,-0.185
6.6,-0.0153,-0.7559,10.1251,-5.3544,-9.1029,2.9206
6.62,0.0411,-0.7357,9.9884,-8.8921,-6.6177,1.9983
6.64,-0.0222,-0.5708,10.0221,-2.1456,-7.062,1.5639
6.66,-0.0253,-0.4352,9.8432,-1.233,-5.6887,5.2496
6.68,0.0806,-0.485,9.8262,1.3232,-5.9822,2.6642
6.7,0.0348,-0.4913,9.9601,4.0542,-10.3182,5.9645
6.72,0.1187,-0.3974,10.01,-0.3955,-7.761,5.316
6.74,0.0744,-0.5961,10.1402,5.6249,-7.8135,3.4131
6.76,0.1499,-0.5304,10.1177,3.1091,-7.4244,4.8215
6.78,0.1904,-0.4075,10.2156,9.3784,-9.6586,1.4496
6.8,0.2073,-0.4224,10.135,14.1568,-10.253,3.3166
6.82,0.2181,-0.3838,10.4311,18.0878,-7.6583,4.171
6.84,0.1513,-0.5218,10.2637,14.7074,-11.797,-0.5301
6.86,0.2055,-0.4747,10.3446,8.8659,-7.9807,-0.6841
6.88,0.2469,-0.2852,10.3478,5.3002,-7.3897,-0.0906
6.9,0.1319,-0.5514,10.4005,14.8923,-6.4586,-1.5284
6.92,0.043,-0.4448,10.289,11.3522,-8.4506,-3.6852
6.94,0.208,-0.454,10.2449,14.1913,-10.2014,-2.9572
6.96,0.1501,-0.406,10.2484,6.7287,-7.9654,-2.2869
6.98,0.0662,-0.4452,10.2172,3.9188,-7.1117,-3.0953
7.0,0.0855,-0.3715,10.2521,12.4398,-9.1907,-1.9421
7.02,0.0758,-0.5778,10.0625,7.0551,-7.9052,-6.7839
7.04,0.1582,-0.4095,10.0455,3.1973,-5.1287,-2.9333
7.06,-0.0563,-0.6119,9.9552,5.168,-9.4924,-6.2539
7.08,0.0451,-0.4926,9.8566,-2.5633,-7.8565,-2.9503
7.1,-0.123,-0.6521,9.9334,0.1581,-4.8991,-4.4436
7.12,-0.2028,-0.6748,9.9163,-3.9563,-6.5767,-1.5101
7.14,-0.1805,-0.659,10.0496,-6.2986,-9.7616,-3.4812
7.16,-0.0371,-0.6052,10.1324,-7.643,-9.6189,-4.039
7.18,-0.0431,-0.7317,10.261,-11.6841,-5.374,-1.2412
7.2,-0.0244,-0.7372,10.3429,-11.8345,-10.8474,-3.6529
7.22,-0.2427,-0.7742,10.2915,-9.4398,-4.9052,-1.9157
7.24,-0.2482,-0.6816,10.2256,-12.6634,-6.4172,-2.5397
7.26,-0.2772,-0.7001,10.2964,-13.0564,-9.5729,-3.5933
7.28,-0.1971,-0.666,10.4057,-12.4972,-8.0725,2.1256
7.3,-0.2183,-0.6926,10.3951,-5.0355,-6.5314,-1.3766
7.32,-0.1649,-0.7926,10.2543,-12.9461,-10.1947,1.627
7.34,-0.1412,-0.6452,10.3571,-5.9901,-8.0582,-0.977
7.36,-0.1236,-0.5665,10.3293,-10.8782,-7.5769,2.0867
7.38,-0.1857,-0.7509,10.3153,-10.8032,-7.8708,3.6948
7.4,-0.1307,-0.7257,10.2441,-10.0789,-5.5511,4.9964
7.42,-0.1559,-0.6686,10.11,-8.1484,-8.8838,2.1309
7.44,-0.038,-0.6298,10.0418,-4.3348,-9.672,4.2239
7.46,-0.2097,-0.6977,9.998,-2.8979,-9.3901,0.3603
7.48,-0.0148,-0.5651,9.8271,-0.9224,-8.1182,3.6641
7.5,-0.0061,-0.4465,9.8326,0.7741,-9.8187,5.1526
7.52,0.0871,-0.5803,9.8755,3.3823,-6.2329,3.9828
7.54,0.0432,-0.3481,10.0163,4.5465,-7.2946,5.0967
7.56,0.0992,-0.4795,10.0015,2.6422,-8.9393,3.6525
7.58,0.1057,-0.4223,10.1484,3.9401,-11.2115,0.2037
7.6,0.2091,-0.3368,10.0622,9.0416,-7.1787,5.5614
7.62,0.2176,-0.2569,10.2341,2.0546,-6.9239,1.5205
7.64,0.2064,-0.5487,10.3187,13.4871,-5.4928,4.8318
7.66,0.162,-0.4965,10.3713,11.6798,-6.0224,1.7785
7.68,0.1981,-0.558,10.4121,12.9531,-7.0269,1.5493
7.7,0.2071,-0.2902,10.3197,11.4749,-6.9266,-1.8564
7.72,0.1064,-0.4162,10.4491,13.4268,-8.0756,-0.1613
7.74,0.2092,-0.4578,10.3466,13.1343,-8.3987,0.2006
7.76,0.1716,-0.3897,10.2852,9.15,-9.4155,0.3659
7.78,0.1542,-0.4525,10.2237,9.1634,-8.7962,-2.0338
7.8,0.2916,-0.3735,10.2832,9.1144,-9.4784,-1.0388
7.82,0.0643,-0.567,10.1253,10.2242,-5.7831,-4.6152
7.84,0.1265,-0.3456,10.2505,8.799,-7.2611,-2.3856
7.86,0.1782,-0.5596,10.155,7.5556,-7.8849,-2.5628
7.88,0.1238,-0.587,9.8452,1.3324,-7.0143,-2.7533
7.9,0.1734,-0.4627,9.7895,0.0662,-7.9567,-3.668
7.92,-0.1584,-0.6003,9.7875,4.8233,-7.7103,-3.5771
7.94,-0.0823,-0.5995,9.9194,-8.0011,-9.1917,-2.577
7.96,-0.335,-0.5735,9.9946,-2.2702,-12.9161,-4.1587
7.98,-0.1826,-0.6829,10.0907,-6.4068,-9.1298,-0.7677
8.0,-0.0959,-0.663,10.1848,-3.1877,-9.5195,-1.8161
8.02,-0.1223,-0.6394,10.1436,-9.0771,-7.7392,-3.2913
8.04,-0.168,-0.7118,10.3435,-8.6756,-2.7471,-3.1575
8.06,-0.1655,-0.5614,10.2901,-3.8106,-10.6073,-0.6355
8.08,-0.156,-0.608,10.4259,-9.6473,-10.2321,-4.3699
8.1,-0.3321,-0.5452,10.3293,-11.3177,-6.9663,-0.1391
8.12,-0.2282,-0.7516,10.2807,-10.8683,-8.2,-0.5363
8.14,-0.2814,-0.589,10.3393,-8.5057,-8.5799,2.5908
8.16,-0.1647,-0.7805,10.3494,-15.8327,-8.6369,-0.1313
8.18,-0.312,-0.65,10.3739,-4.8734,-8.8312,2.3668
8.2,-0.1784,-0.6313,10.2982,-9.6883,-10.3744,2.1464
8.22,-0.0924,-0.7394,10.2877,-8.7084,-9.0663,1.8797
8.24,-0.0656,-0.6875,10.0388,-7.7532,-7.45,2.2341
8.26,-0.069,-0.6468,10.0876,-7.6286,-7.9703,-2.0534
8.28,-0.0111,-0.4815,10.0696,-7.4281,-7.7008,1.1673
8.3,-0.0573,-0.4693,9.8828,0.531,-8.8602,5.4686
8.32,-0.1042,-0.515,9.7941,0.0572,-10.562,2.0648
8.34,0.0017,-0.6402,9.8603,-2.9786,-8.1804,2.3407
8.36,-0.0054,-0.4959,9.8857,0.9185,-2.7006,4.2059
8.38,0.0688,-0.5535,9.9772,5.6815,-5.7999,1.1666
8.4,0.0616,-0.3672,10.1125,5.1016,-6.1924,5.2846
8.42,0.0381,-0.4621,10.1598,5.8914,-10.1093,2.9055
8.44,0.1398,-0.4881,10.2076,4.3319,-6.2178,3.0978
8.46,0.1173,-0.3355,10.3053,13.7494,-8.1734,0.4811
8.48,0.2235,-0.339,10.3095,11.7773,-10.482,0.5671
8.5,0.1474,-0.2845,10.2542,16.6319,-12.0312,-0.675
8.52,0.1901,-0.5165,10.3063,17.2321,-12.0924,0.3645
8.54,0.1886,-0.4107,10.3627,11.0049,-9.9144,1.1216
8.56,0.1439,-0.3252,10.3192,14.3316,-5.061,-0.554
8.58,0.197,-0.3579,10.2823,10.3292,-7.655,-2.3799
8.6,0.1305,-0.3341,10.2644,10.5297,-9.478,-0.5532
8.62,0.1626,-0.4637,10.2928,5.7496,-6.1728,-0.6913
8.64,0.0592,-0.3684,10.2766,6.3276,-7.442,-4.6368
8.66,0.1248,-0.5339,10.1025,4.4817,-10.2523,-2.3113
8.68,0.0662,-0.4611,10.1419,2.2113,-5.2602,-0.984
8.7,0.1055,-0.4913,10.0717,5.0615,-11.6069,-5.5003
8.72,-0.0016,-0.4414,9.9011,2.7813,-3.7456,-2.7746
8.74,-0.1519,-0.6149,9.8563,-1.3816,-7.7777,-6.967
8.76,-0.1145,-0.6588,9.8532,-1.5763,-5.9835,-5.8494
8.78,-0.0718,-0.6012,9.8947,0.6133,-6.7887,-4.7899
8.8,-0.0499,-0.6884,9.9881,-6.9187,-7.3964,-1.5279
8.82,-0.0671,-0.7455,10.0769,-6.9873,-9.8856,-4.1217
8.84,-0.0943,-0.6048,10.1951,-9.9344,-4.1618,-2.2312
8.86,-0.1385,-0.734,10.283,-7.7218,-8.8851,-2.7358
8.88,-0.1404,-0.6693,10.1589,-12.1355,-7.4181,-1.8391
8.9,-0.1659,-0.5632,10.4417,-8.6886,-4.4984,-2.4412
8.92,-0.1753,-0.7531,10.3313,-7.3221,-10.1228,1.3896
8.94,-0.2029,-0.7199,10.3982,-14.841,-9.1486,-0.9098
8.96,-0.2385,-0.7034,10.2268,-9.7735,-6.5254,0.0805
8.98,-0.2022,-0.5638,10.424,-9.8196,-8.7699,3.0806
9.0,-0.1571,-0.929,10.3583,-12.7296,-9.0768,2.9814
9.02,-0.2112,-0.5216,10.2305,-6.5534,-7.5305,1.1892
9.04,-0.1551,-0.549,10.2221,-4.5257,-9.1957,1.5534
9.06,0.0224,-0.6016,10.0756,-3.2283,-6.6716,2.0459
9.08,-0.171,-0.5173,10.1143,-10.8012,-8.2118,1.8758
9.1,-0.1367,-0.6276,10.0356,-7.0646,-8.5036,1.3027
9.12,-0.111,-0.6454,9.9751,-3.5055,-9.6555,3.5199
9.14,-0.025,-0.5918,9.9461,-1.93,-7.103,1.63
9.16,-0.2157,-0.6418,9.8169,-0.5011,-7.222,6.523
9.18,-0.0764,-0.5231,9.8451,-1.4318,-7.5462,5.3562
9.2,0.0786,-0.5158,10.1066,6.6224,-12.7243,2.9358
9.22,0.0701,-0.4602,10.0629,1.3625,-7.7358,2.1416
9.24,0.036,-0.4699,10.1262,5.6712,-8.1216,2.1479
9.26,0.1177,-0.5115,10.25,7.7348,-10.795,1.7142
9.28,0.1213,-0.3969,10.2191,9.3013,-8.9744,3.0077
9.3,0.3024,-0.4041,10.2392,7.9582,-8.6776,1.2312
9.32,0.23,-0.4104,10.3348,10.6869,-10.0508,1.656
9.34,0.2063,-0.3598,10.3673,14.0431,-10.6624,-0.9748
9.36,0.0747,-0.489,10.368,12.379,-7.2113,2.0168
9.38,0.1899,-0.3348,10.3651,12.7626,-5.9588,0.5142
9.4,0.2015,-0.3794,10.3442,8.2617,-3.8044,0.4748
9.42,0.1459,-0.4592,10.2979,14.676,-9.3807,-0.7489
9.44,0.0601,-0.3877,10.2656,16.255,-9.7579,-0.8176
9.46,0.096,-0.4066,10.2408,10.8145,-9.2444,-3.3772
9.48,0.2068,-0.3051,10.163,9.3953,-6.7757,-2.339
9.5,0.0511,-0.445,10.121,6.9154,-8.3332,-3.9436
9.52,-0.0597,-0.4601,9.9758,0.6839,-6.3247,-3.7021
9.54,-0.0008,-0.4331,9.9539,2.345,-4.9363,-4.3768
9.56,-0.0462,-0.4996,9.9737,6.7054,-7.3066,-3.1192
9.58,0.0397,-0.5146,9.7648,-1.5181,-11.075,-5.574
9.6,-0.0483,-0.6068,9.8709,-3.1379,-8.8885,-4.3823
9.62,-0.1111,-0.5264,9.9219,-5.3562,-9.7382,-3.8292
9.64,-0.2586,-0.7504,10.0719,-3.9279,-10.9848,-3.6466
9.66,-0.1808,-0.7013,9.9906,-5.2296,-9.8486,-3.8314
9.68,-0.1069,-0.6142,10.2046,-3.2355,-5.0269,-3.0465
9.7,-0.248,-0.7461,10.3388,-4.573,-9.2679,-1.7538
9.72,-0.213,-0.7188,10.3161,-15.7692,-4.6577,-4.0802
9.74,-0.0125,-0.7022,10.2454,-8.683,-9.2509,-2.9718
9.76,-0.2065,-0.7876,10.3781,-12.6839,-10.472,-0.4125
9.78,-0.2079,-0.6624,10.2948,-9.5126,-10.2017,0.101
9.8,-0.2408,-0.8001,10.4964,-16.1131,-7.7732,0.0737
9.82,-0.2619,-0.6634,10.3502,-13.0767,-9.0226,2.3534
9.84,-0.1282,-0.6201,10.2882,-12.579,-10.755,2.0883
9.86,-0.1222,-0.7598,10.3316,-7.6141,-9.9938,4.7198
9.88,-0.0991,-0.7937,10.3227,-8.5705,-9.1595,1.8118
9.9,-0.0832,-0.7502,10.1436,-9.4688,-9.8448,3.2908
9.92,0.0124,-0.6415,10.1108,-5.4487,-7.2774,2.162
9.94,-0.0868,-0.6306,10.0705,-6.3872,-8.4645,1.4126
9.96,-0.09,-0.4347,9.9152,-6.4552,-5.7706,4.3505
9.98,-0.0504,-0.4683,9.8518,-2.4338,-5.6452,1.4924
10.0,0.0794,-0.4289,9.8322,1.9336,-9.2757,2.4745
10.02,0.0931,-0.4086,9.8372,2.7394,-10.0139,5.5742
10.04,-0.002,-0.4098,9.9135,-0.1624,-4.4256,2.9478
10.06,0.0406,-0.4945,10.2166,9.4465,-6.4306,3.1555
10.08,0.1768,-0.4882,10.2374,3.3204,-6.8586,2.9501
10.1,0.1309,-0.4613,10.135,9.2957,-7.027,3.8572
10.12,0.1828,-0.2985,10.2488,8.5042,-4.2548,4.5263
10.14,0.3,-0.4017,10.4047,8.8138,-7.5252,2.8193
10.16,0.2628,-0.3094,10.3162,12.096,-8.0315,3.291
10.18,0.1221,-0.5553,10.2948,13.5145,-7.3902,1.991
10.2,0.214,-0.4054,10.2764,14.5348,-5.6089,-0.6286
10.22,0.1491,-0.4364,10.401,15.8046,-8.2975,-0.4916
10.24,0.2444,-0.4018,10.3386,8.5988,-9.7413,-1.129
10.26,0.1409,-0.3877,10.3705,13.7657,-6.3078,-0.2784
10.28,0.1004,-0.3439,10.2827,12.6027,-7.7189,-2.5388
10.3,0.2408,-0.4904,10.363,12.3196,-8.6864,-0.8583
10.32,0.0766,-0.4032,10.1651,8.4121,-8.2871,-2.9729
10.34,0.1848,-0.4052,10.2449,4.2395,-6.4839,-4.4695
10.36,0.1608,-0.4173,10.0545,4.7655,-10.9548,-2.8667
10.38,-0.0183,-0.4626,9.9017,5.4524,-10.7486,-0.521
10.4,0.1078,-0.4999,9.8673,1.8699,-7.6649,-7.4696
10.42,-0.039,-0.5471,9.8217,-4.6145,-7.7862,-3.0769
10.44,0.0014,-0.4927,9.9384,-2.9118,-7.1379,-3.7701
10.46,-0.0371,-0.5328,10.0331,-2.0631,-5.6639,-4.5449
10.48,0.0287,-0.5784,10.1003,-6.524,-9.5466,-4.9748
10.5,-0.1605,-0.7498,10.1157,-9.8712,-6.6293,-2.6441
10.52,-0.1353,-0.5864,10.1155,-8.8078,-9.4177,-1.9587
10.54,-0.2693,-0.6685,10.3464,-10.2179,-8.4865,-0.941
10.56,-0.1903,-0.7684,10.2643,-10.818,-12.5068,-2.7222
10.58,-0.1364,-0.6828,10.3519,-11.2786,-9.3919,2.6172
10.6,-0.143,-0.6393,10.258,-7.9063,-8.6294,-0.8706
10.62,-0.2754,-0.7025,10.296,-14.6868,-8.8128,3.4978
10.64,-0.1781,-0.694,10.4023,-9.7895,-8.4037,4.5398
10.66,-0.2047,-0.692,10.3381,-14.4051,-9.9553,1.399
10.68,-0.1282,-0.8297,10.3399,-6.5607,-7.4062,2.3075
10.7,-0.1754,-0.6984,10.2853,-10.6057,-5.1199,2.523
10.72,-0.1351,-0.5926,10.219,-7.1624,-9.1579,1.6256
10.74,-0.0013,-0.6769,10.1573,-7.6865,-9.819,2.4831
10.76,-0.0937,-0.5983,10.084,-2.7597,-5.2638,0.4295
10.78,-0.1161,-0.6428,9.9972,-6.43,-6.4458,3.0153
10.8,-0.0909,-0.6308,10.0516,-0.5073,-4.555,3.4007
10.82,0.0016,-0.5876,9.7456,-0.4407,-6.479,4.2313
10.84,0.0023,-0.4778,9.719,3.2697,-6.569,5.9351
10.86,0.1068,-0.5417,9.9832,6.2751,-6.2883,3.9052
10.88,0.0665,-0.5084,9.9118,-0.4997,-6.7286,3.0723
10.9,0.0388,-0.6248,10.0179,6.5311,-9.0622,4.4405
10.92,0.125,-0.3883,10.0809,4.7685,-9.6012,0.5208
10.94,0.0863,-0.4648,10.2243,12.4727,-7.8941,4.0539
10.96,0.2227,-0.4672,10.2143,6.464,-5.2192,3.5026
10.98,0.1216,-0.4432,10.1829,11.9644,-7.8438,-1.3814
11.0,0.1623,-0.3678,10.3826,15.3902,-8.9859,0.2451
11.02,0.2217,-0.4289,10.3632,5.4263,-7.1425,0.9443
11.04,0.2099,-0.2235,10.3642,11.4916,-9.153,0.3335
11.06,0.177,-0.4422,10.3155,10.8642,-6.0098,0.183
11.08,0.1253,-0.4002,10.2689,12.1533,-8.2523,-2.0119
11.1,0.182,-0.4549,10.3589,13.4152,-7.3847,-4.3427
11.12,0.1124,-0.3643,10.2039,8.4428,-9.0324,-2.9455
11.14,0.2475,-0.5023,10.2192,6.6473,-6.5684,-4.1114
11.16,0.0116,-0.5524,10.1676,2.3321,-8.4944,-3.1528
11.18,0.0335,-0.3827,10.1556,4.9201,-8.0582,-0.8144
11.2,0.1214,-0.5532,10.0525,5.6437,-10.3106,-2.4901
11.22,0.0882,-0.4979,10.095,-0.29,-4.6947,-4.215
11.24,0.1111,-0.414,9.7941,6.788,-7.9475,-4.2714
11.26,-0.032,-0.5651,9.8188,-0.1496,-7.1567,-6.6137
11.28,-0.0501,-0.6579,9.9428,-4.1148,-10.6619,-3.5168
11.3,-0.0762,-0.5776,9.9599,-9.0622,-10.7893,0.005
11.32,-0.0208,-0.6989,10.1053,-6.3623,-5.0156,-1.8107
11.34,-0.1272,-0.767,10.1433,-4.9054,-8.3281,-0.4208
11.36,-0.2408,-0.5924,10.2015,-7.4414,-6.0808,-4.4911
11.38,-0.2156,-0.5931,10.2878,-10.4663,-5.7767,-2.6798
11.4,-0.1101,-0.7345,10.3465,-10.6281,-9.9101,0.9532
11.42,-0.1813,-0.6762,10.4128,-9.315,-10.7021,-0.5057
11.44,-0.1745,-0.6694,10.3469,-10.9133,-8.4081,-0.4318
11.46,-0.2874,-0.71,10.4291,-11.2878,-7.346,0.9846
11.48,-0.2082,-0.7179,10.3786,-9.4814,-6.0001,2.8281
11.5,-0.3323,-0.8157,10.4182,-9.5122,-7.3586,3.7063
11.52,-0.0655,-0.5685,10.3552,-14.7935,-7.7406,0.4955
11.54,-0.3202,-0.6875,10.2222,-10.2703,-7.3636,5.2859
11.56,-0.1107,-0.5669,10.2841,-11.4257,-8.0025,6.3988
11.58,-0.1126,-0.5932,10.1056,-5.8475,-8.3437,2.914
11.6,-0.1407,-0.5906,10.0216,-2.7632,-10.685,3.1029
11.62,-0.1074,-0.6054,9.9541,-0.7597,-6.4802,2.5837
11.64,-0.098,-0.5294,9.913,-4.091,-10.3224,2.7953
11.66,0.0046,-0.6303,9.8072,-1.4433,-9.1594,1.4107
11.68,0.0192,-0.4042,9.8541,-1.9494,-6.9623,3.3942
11.7,-0.012,-0.3995,10.0698,1.5728,-7.1626,4.9679
11.72,-0.0702,-0.6051,9.9531,6.5487,-11.8378,4.1486
11.74,0.0601,-0.5168,10.0676,10.4336,-8.3811,4.6286
11.76,0.0941,-0.4712,10.1674,5.8165,-7.0079,2.9374
11.78,0.1094,-0.4111,10.3204,10.5993,-7.1592,3.7822
11.8,0.217,-0.2443,10.302,9.8476,-7.6845,1.7525
11.82,0.1315,-0.386,10.2798,2.9686,-7.4829,0.6122
11.84,0.1972,-0.44,10.268,11.0505,-10.3348,-0.8278
11.86,0.2751,-0.3612,10.3819,9.9927,-8.7951,1.695
11.88,0.2112,-0.549,10.3086,10.0788,-6.3872,0.6395
11.9,0.1946,-0.5703,10.2801,8.2947,-8.4314,-0.9738
11.92,0.2579,-0.4151,10.3638,7.8083,-9.7916,-1.5755
11.94,0.1631,-0.437,10.3042,7.3942,-11.2568,-3.8182
11.96,0.2881,-0.5713,10.3099,8.6395,-3.9616,-4.6362
11.98,0.0536,-0.2961,10.2729,12.8937,-11.5817,-1.8529
12.0,0.0891,-0.5207,10.1971,8.7607,-9.2338,-1.1423
12.02,-0.0715,-0.4134,10.0683,8.5977,-9.3408,-2.3751
12.04,0.0201,-0.406,9.9385,5.3949,-8.3036,-2.674
12.06,-0.0665,-0.6077,9.8985,1.3632,-9.7827,-4.7668
12.08,0.0667,-0.6041,9.8433,-2.7466,-8.8972,-2.3124
12.1,0.0382,-0.5526,9.8889,-0.8187,-7.5932,-4.8617
12.12,-0.2186,-0.5626,9.9175,-1.7136,-8.2015,-3.8417
12.14,-0.0104,-0.5499,10.0679,-2.1494,-8.44,-3.3009
12.16,-0.1942,-0.7117,10.142,-5.4203,-6.3717,-4.3951
12.18,-0.1306,-0.6759,10.1793,-6.5584,-5.7238,-3.4894
12.2,-0.1683,-0.644,10.2849,-6.019,-11.8976,-1.3243
12.22,-0.1906,-0.6043,10.1923,-10.9979,-6.6919,-1.5068
12.24,-0.2288,-0.6226,10.2681,-8.2809,-8.8682,-2.5745
12.26,-0.2681,-0.6876,10.3971,-9.2196,-8.5391,0.9257
12.28,-0.2429,-0.6816,10.2973,-11.863,-7.6639,1.0925
12.3,-0.1232,-0.6831,10.4409,-17.0769,-6.9093,2.3964
