time_s,Ax,Ay,Az,Gx,Gy,Gz
0.0,0.1258,-0.5952,9.7952,-2.2578,-3.8066,4.3092
0.02,0.1127,-0.5101,9.8829,0.7985,-8.5296,4.4729
0.04,0.1666,-0.5535,9.8879,4.3204,-6.3364,2.9519
0.06,0.0957,-0.4791,9.9922,3.4923,-7.9387,1.8091
0.08,0.1599,-0.4008,10.1728,5.9993,-9.2421,6.0081
0.1,0.0669,-0.3895,10.2706,10.7322,-8.8037,3.2094
0.12,0.1285,-0.4659,10.3613,9.6333,-8.1212,2.5084
0.14,0.1585,-0.3429,10.2427,10.1113,-11.2229,0.4078
0.16,0.1728,-0.3547,10.3567,10.5273,-10.0797,-0.9584
0.18,0.1552,-0.4004,10.3405,8.5365,-8.9469,-0.3112
0.2,0.1574,-0.5113,10.4383,15.2625,-8.79,-0.7173
0.22,0.1898,-0.4206,10.3238,7.1522,-8.7517,1.4634
0.24,0.1879,-0.4894,10.3367,11.8463,-9.6948,-3.3037
0.26,0.2921,-0.4209,10.2283,15.5653,-7.3427,-3.314
0.28,0.1651,-0.4027,10.2085,7.794,-11.4942,-0.6924
0.3,0.3062,-0.3417,10.1866,10.5513,-10.7065,-3.4389
0.32,0.1536,-0.2998,10.2157,9.8713,-7.5131,-2.8875
0.34,0.1443,-0.3958,10.1956,9.0311,-8.5203,-4.4698
0.36,0.0245,-0.4998,10.1024,5.9344,-6.1878,-1.9148
0.38,0.1222,-0.5309,9.8892,3.4925,-9.0306,-4.8525
0.4,0.0459,-0.6172,9.8844,4.0108,-7.2241,-5.8263
0.42,-0.0447,-0.5288,9.8808,0.008,-10.3791,-4.9616
0.44,0.1062,-0.4556,9.9408,-5.2198,-12.0786,-3.2816
0.46,-0.1162,-0.663,9.9175,2.2921,-8.1011,-1.775
0.48,-0.024,-0.5999,10.0716,-5.4996,-8.0115,-3.3248
0.5,-0.0886,-0.6782,10.1128,-2.9718,-9.3949,-2.7459
0.52,-0.1865,-0.5817,10.2429,-8.9583,-7.363,-3.7074
0.54,-0.0798,-0.678,10.2462,-9.9969,-5.972,-2.8851
0.56,-0.2005,-0.6101,10.2973,-11.5497,-7.7539,1.6037
0.58,-0.3121,-0.7952,10.3949,-10.0542,-11.0318,-1.6236
0.6,-0.2159,-0.7639,10.3791,-10.729,-9.2473,-0.8493
0.62,-0.2176,-0.7929,10.3548,-10.0844,-7.6969,1.7982
0.64,-0.3637,-0.8331,10.4877,-10.4457,-10.0173,0.5357
0.66,-0.2754,-0.5969,10.2861,-15.2453,-9.8614,-0.2109
0.68,-0.2345,-0.7551,10.3793,-11.0478,-11.0263,0.0285
0.7,-0.1591,-0.6704,10.2419,-8.9348,-10.5436,3.6721
0.72,-0.158,-0.7068,10.3001,-4.296,-6.4409,0.3235
0.74,-0.1027,-0.6744,10.2119,-6.319,-10.7741,3.5147
0.76,-0.0947,-0.5072,10.1854,-4.9693,-7.9083,3.8323
0.78,-0.1118,-0.6354,10.011,-6.2482,-8.2764,5.4611
0.8,-0.0464,-0.6226,10.0084,3.9779,-4.9558,2.5913
0.82,-0.0047,-0.4717,9.8756,-0.0422,-6.0485,3.8911
0.84,0.1235,-0.6435,9.812,2.9805,-8.4211,5.5166
0.86,0.2415,-0.4655,9.9098,1.3587,-6.0904,3.0155
0.88,0.1358,-0.5464,10.052,2.2841,-8.4763,4.1483
0.9,0.103,-0.4514,9.9837,8.3755,-8.871,4.8219
0.92,0.0778,-0.5334,10.2104,10.3767,-5.2014,4.7153
0.94,0.1252,-0.4311,10.2002,4.4616,-11.7166,2.3464
0.96,0.1901,-0.4501,10.2833,6.7262,-10.4151,0.9902
0.98,0.134,-0.3165,10.3203,8.4295,-8.0522,3.307
1.0,0.0761,-0.4523,10.324,17.2039,-8.9489,2.94
1.02,0.1787,-0.3519,10.3426,7.7075,-9.6718,1.2429
1.04,0.2246,-0.381,10.2757,15.7262,-11.0528,-0.3713
1.06,0.1824,-0.5313,10.3327,12.9598,-8.3094,1.3248
1.08,0.2882,-0.4501,10.3094,9.9861,-9.7129,0.0425
1.1,-0.0493,-0.4608,10.275,11.04,-13.3287,-3.2288
1.12,0.0928,-0.4081,10.2789,9.3114,-9.203,-2.4748
1.14,0.2901,-0.3193,10.1417,11.1207,-11.1858,-2.3546
1.16,0.1537,-0.3377,10.1504,4.6311,-7.0308,-2.4961
1.18,0.0285,-0.5299,10.0751,10.0113,-4.3245,-3.8037
1.2,0.0988,-0.5603,9.9971,4.0188,-5.6689,-4.1845
1.22,0.1579,-0.4345,9.8755,0.6519,-8.3084,-1.8401
1.24,0.0883,-0.3406,9.7941,2.0029,-7.6974,-5.6259
1.26,-0.1543,-0.4107,9.929,-1.843,-5.747,-3.3404
1.28,0.0321,-0.5305,9.8196,-5.2447,-7.757,-3.6267
1.3,-0.0211,-0.6821,9.9991,-2.2002,-11.0266,-5.4952
1.32,-0.0705,-0.6666,10.1536,-4.6447,-10.9213,-4.2191
1.34,-0.0914,-0.6998,10.0641,-5.0456,-8.8412,-3.1614
1.36,-0.1133,-0.5625,10.2728,-10.7464,-10.444,-5.8357
1.38,-0.1352,-0.773,10.202,-10.3763,-6.6749,-4.0962
1.4,-0.1816,-0.6853,10.3024,-15.0022,-13.0926,-1.9373
1.42,-0.2224,-0.642,10.2485,-8.7509,-6.4071,-2.0243
1.44,-0.1259,-0.6623,10.526,-14.9115,-6.7898,1.2842
1.46,-0.1827,-0.7309,10.3755,-11.9586,-7.4973,-2.0534
1.48,-0.1486,-0.7185,10.4936,-11.4396,-10.088,2.7172
1.5,-0.2572,-0.7549,10.3278,-8.8233,-4.4553,1.6161
1.52,-0.1498,-0.8456,10.4196,-10.163,-8.7756,-2.7315
1.54,-0.2264,-0.6979,10.1486,-13.0754,-7.0664,2.0039
1.56,-0.2465,-0.5902,10.2041,-12.0714,-6.6674,5.0897
1.58,-0.1724,-0.6695,10.2061,-7.8759,-5.1876,4.118
1.6,-0.0385,-0.6133,9.9256,-10.0116,-11.1922,4.7054
1.62,-0.1532,-0.477,9.9304,-4.5625,-7.0741,3.7171
1.64,-0.0667,-0.5384,10.0622,-2.1818,-5.683,6.287
1.66,0.0148,-0.5202,9.9409,-0.1784,-9.1409,4.7098
1.68,-0.0734,-0.5799,9.809,-2.9916,-8.4134,6.1071
1.7,-0.0933,-0.5059,10.0284,4.6358,-5.904,6.0015
1.72,0.1252,-0.5438,10.0819,3.9325,-7.8028,0.9284
1.74,0.1481,-0.4425,10.145,7.8566,-7.1878,3.808
1.76,0.0946,-0.4227,10.1417,8.4266,-9.7823,0.1121
1.78,0.1841,-0.3553,10.2351,7.7018,-6.865,2.6987
1.8,0.1025,-0.4302,10.2879,11.8312,-11.0369,1.8857
1.82,0.0675,-0.3915,10.3005,9.0412,-10.1275,0.5322
1.84,0.217,-0.4037,10.3377,7.3575,-10.7667,-0.5228
1.86,0.2402,-0.2887,10.2717,12.2784,-6.4112,-0.0768
1.88,0.3121,-0.287,10.4102,9.2596,-9.2615,0.3454
1.9,0.2192,-0.2828,10.3118,9.8266,-10.6747,-4.7478
1.92,0.1988,-0.4156,10.2832,10.48,-8.3551,-0.1877
1.94,0.097,-0.4253,10.325,13.9831,-9.9221,-0.2258
1.96,0.2163,-0.4012,10.2871,8.2166,-7.1485,-2.9994
1.98,0.1811,-0.4083,10.2125,9.8764,-4.9288,-3.2361
2.0,0.0501,-0.4539,10.123,4.2056,-4.7215,-3.7921
2.02,0.1073,-0.4579,10.0729,7.0492,-9.655,-4.5747
2.04,0.1227,-0.4335,9.9617,4.2896,-2.8747,-7.7781
2.06,-0.0341,-0.4264,9.9086,1.0535,-12.1982,-1.257
2.08,0.1347,-0.5072,9.7987,-0.5866,-7.2419,-1.694
2.1,-0.132,-0.6121,9.8469,-2.4196,-8.9805,-4.7042
2.12,-0.0366,-0.5289,9.8959,-4.1111,-6.6888,-4.2603
2.14,0.0224,-0.7165,9.9723,-6.6361,-7.0695,-6.6767
2.16,-0.0439,-0.7879,10.1014,-7.4314,-8.9666,-4.4199
2.18,-0.1412,-0.8122,10.1734,-4.1043,-6.9832,-3.4587
2.2,-0.1488,-0.7353,10.1837,-9.9239,-9.7802,-2.5147
2.22,-0.1016,-0.7118,10.2286,-13.9334,-7.3588,-1.4658
2.24,-0.2069,-0.7387,10.3153,-9.3813,-10.8247,-3.33
2.26,-0.2189,-0.6604,10.3258,-13.6038,-8.4473,-0.15
2.28,-0.186,-0.7816,10.3526,-14.6591,-2.999,2.1779
2.3,-0.1775,-0.6389,10.3247,-9.2605,-8.7742,1.0137
2.32,-0.1437,-0.6564,10.3697,-10.388,-6.0595,-0.7664
2.34,-0.0417,-0.6277,10.3019,-11.1286,-5.2677,3.2359
2.36,-0.1788,-0.661,10.2894,-7.5886,-8.3856,2.1596
2.38,-0.0738,-0.7056,10.2737,-11.365,-8.6826,-0.5339
2.4,-0.1004,-0.5754,10.2241,-6.5041,-10.2576,0.4276
2.42,-0.0167,-0.7389,10.1557,-5.3026,-5.1517,1.7575
2.44,-0.0565,-0.7278,10.0667,-4.2267,-5.6296,1.7971
2.46,0.0183,-0.4315,9.8898,-6.3621,-8.7785,3.4383
2.48,-0.1586,-0.5211,9.9201,-2.0644,-9.4055,3.2256
2.5,-0.0354,-0.6339,9.8055,0.1546,-11.2945,2.769
2.52,-0.0472,-0.4079,9.8418,4.6678,-7.0344,3.3507
2.54,0.0623,-0.5946,9.9943,-0.4296,-7.0859,2.7286
2.56,0.104,-0.5207,10.061,6.369,-5.1255,4.2691
2.58,0.2443,-0.4588,10.0451,9.2019,-4.5763,3.946
2.6,0.0997,-0.3975,10.1959,10.5103,-8.6738,3.1314
2.62,0.2168,-0.4302,10.2277,6.2876,-8.6918,2.2843
2.64,-0.0127,-0.4852,10.389,7.6265,-8.1263,-0.4576
2.66,0.1595,-0.3121,10.2456,13.9429,-9.005,0.3885
2.68,0.117,-0.4047,10.3014,14.0907,-6.0971,-0.0797
2.7,0.0982,-0.2644,10.2778,11.739,-11.3251,-1.0435
2.72,0.147,-0.3422,10.352,11.6935,-5.167,0.1155
2.74,0.2109,-0.2608,10.2831,9.6272,-11.4866,0.6196
2.76,0.1931,-0.293,10.2918,10.1772,-10.9945,-2.0867
2.78,0.2486,-0.512,10.2066,13.5027,-12.9765,-0.6105
2.8,0.2609,-0.377,10.3379,8.8658,-9.6588,-3.9242
2.82,0.1273,-0.4613,10.1954,10.0987,-8.9418,0.1699
2.84,0.0283,-0.4566,10.1746,7.5669,-7.1819,-1.7469
2.86,0.1286,-0.7066,10.0345,7.5548,-7.0795,-4.0334
2.88,0.0917,-0.4066,9.8953,4.6193,-7.1998,-3.2116
2.9,0.0305,-0.5957,9.9186,3.4949,-9.5406,-2.2887
2.92,-0.0949,-0.5448,9.739,0.9136,-9.1789,-4.6191
2.94,-0.1037,-0.5093,10.0361,-2.1972,-6.9512,-3.4634
2.96,-0.008,-0.4801,9.8804,-4.13,-10.456,-4.1163
2.98,-0.1397,-0.5141,10.1303,-7.9787,-8.529,-3.8093
3.0,-0.0806,-0.6704,10.0864,-8.8924,-6.1344,-0.6013
3.02,-0.1602,-0.6271,10.28,-11.5859,-6.7674,-3.1211
3.04,-0.1145,-0.6526,10.2692,-10.6108,-13.3817,-4.489
3.06,-0.2429,-0.6308,10.3306,-13.0359,-5.8871,-0.0983
3.08,-0.2,-0.685,10.3454,-11.9251,-9.6332,-2.2792
3.1,-0.2102,-0.5524,10.3354,-14.4462,-9.9995,-0.2004
3.12,-0.3157,-0.7893,10.3945,-13.2758,-5.6274,-0.7992
3.14,-0.2147,-0.6754,10.4226,-13.1599,-9.4335,-0.1003
3.16,-0.2509,-0.6585,10.3661,-8.7163,-8.277,-0.4823
3.18,-0.3042,-0.7046,10.2903,-15.3459,-7.8572,-0.8316
3.2,-0.1674,-0.6373,10.2702,-10.6858,-4.2788,1.7069
3.22,-0.1537,-0.7198,10.1694,-9.3345,-5.6722,2.2564
3.24,-0.1766,-0.7103,10.1671,-7.7071,-9.545,2.7602
3.26,-0.056,-0.6319,10.213,-2.1047,-12.24,3.9373
3.28,-0.1263,-0.6283,9.9639,-1.1836,-6.5019,4.9339
3.3,0.1391,-0.5251,9.8608,-3.5681,-8.0743,5.0025
3.32,-0.0523,-0.5801,9.7968,0.6661,-8.1808,5.7804
3.34,0.0261,-0.4488,9.8725,5.1931,-5.9875,0.1673
3.36,0.0947,-0.5742,10.031,1.1391,-8.6808,3.5106
3.38,0.0545,-0.5774,10.0516,7.1976,-8.9587,1.8026
3.4,0.0611,-0.619,10.0191,2.1915,-6.1968,5.3357
3.42,0.2042,-0.5246,10.1146,11.6976,-5.8603,4.1862
3.44,0.095,-0.456,10.2996,2.2491,-7.644,4.6034
3.46,0.0753,-0.3344,10.3023,6.1117,-7.7529,0.9873
3.48,0.1655,-0.3775,10.3029,12.4275,-6.3889,1.2611
3.5,0.0648,-0.3184,10.4875,15.6791,-9.5713,3.9754
3.52,0.1166,-0.4047,10.4191,11.8496,-7.8928,3.0384
3.54,0.1555,-0.3862,10.2921,10.3746,-9.8548,-1.1523
3.56,0.2376,-0.3375,10.3142,8.9822,-9.6503,-2.1918
3.58,0.2622,-0.269,10.2509,11.2761,-6.0908,-1.8011
3.6,0.2132,-0.4258,10.2505,11.4708,-8.6342,-2.8002
3.62,0.218,-0.5427,10.1835,12.3829,-4.6606,-1.566
3.64,0.0199,-0.29,10.2094,8.5989,-1.9643,-2.7778
3.66,0.1125,-0.4154,10.1737,3.8354,-4.3574,-4.12
3.68,0.054,-0.5304,10.0118,3.1379,-7.6129,-1.5071
3.7,0.0227,-0.5521,9.9568,4.0471,-9.3897,-3.7752
3.72,0.0915,-0.6494,9.9174,4.2934,-11.2704,-6.7334
3.74,-0.0007,-0.5839,9.8196,2.8731,-11.8233,-8.3019
3.76,-0.1476,-0.5944,9.8164,-2.1797,-7.6357,-3.1448
3.78,-0.0904,-0.7252,9.9131,-4.589,-7.3828,-2.7897
3.8,0.1228,-0.5764,10.124,-6.0917,-9.86,-2.4284
3.82,-0.0515,-0.6221,10.0368,-5.7777,-8.998,-2.4455
3.84,-0.0907,-0.57,10.0934,-8.0467,-6.8015,-2.6607
3.86,-0.1654,-0.6627,10.2366,-10.2268,-10.5616,-4.2938
3.88,-0.232,-0.6075,10.2674,-10.7147,-8.1338,-1.7742
3.9,-0.169,-0.7116,10.3629,-13.2691,-7.4553,-2.3761
3.92,-0.2364,-0.6548,10.2946,-7.8236,-5.9267,1.6176
3.94,-0.2011,-0.8082,10.3504,-12.238,-10.579,0.3218
3.96,-0.272,-0.6493,10.2176,-11.3039,-7.4622,0.221
3.98,-0.153,-0.8168,10.375,-11.0888,-6.0791,0.5868
4.0,-0.4004,-0.7517,10.2731,-9.1461,-13.4932,0.3169
4.02,-0.2714,-0.5947,10.2452,-8.8317,-5.8586,4.3926
4.04,-0.1516,-0.7249,10.3097,-6.7231,-7.0935,1.9538
4.06,-0.0971,-0.5557,10.1568,-5.5548,-7.2647,3.1485
4.08,-0.1061,-0.5119,10.1938,-5.324,-3.0085,4.6784
4.1,0.0213,-0.6093,10.182,-3.0859,-7.9901,1.8932
4.12,-0.1257,-0.6176,9.8607,-3.699,-6.7054,2.6954
4.14,0.0009,-0.5704,10.0153,4.6004,-9.7832,4.983
4.16,-0.0799,-0.533,9.7515,-2.6703,-11.0839,3.2958
4.18,-0.0948,-0.3585,9.9627,-1.6066,-9.1983,6.2874
4.2,0.0495,-0.6566,9.9699,0.4012,-3.7305,2.8867
4.22,0.1993,-0.6646,10.0052,3.6392,-7.9865,1.647
4.24,0.0886,-0.499,10.1548,6.6979,-7.361,4.478
4.26,0.0829,-0.3371,10.1046,7.7184,-8.0401,4.6467
4.28,0.1759,-0.4432,10.3005,8.4029,-9.7817,2.7074
4.3,0.3191,-0.3915,10.3278,8.0814,-9.9108,0.1365
4.32,0.0466,-0.4376,10.3608,10.3873,-8.5293,3.7005
4.34,0.1998,-0.371,10.3187,12.1023,-6.8688,4.142
4.36,0.156,-0.3115,10.3803,13.5982,-9.4277,-1.7859
4.38,0.2563,-0.409,10.3183,14.5497,-7.4103,0.1503
4.4,0.1921,-0.3632,10.3877,11.9346,-6.2955,-0.4184
4.42,0.1389,-0.5021,10.179,13.0692,-6.0306,-0.6801
4.44,0.1488,-0.2428,10.2471,10.2772,-8.6639,-3.1167
4.46,0.1202,-0.529,10.2959,9.8122,-7.9498,-3.8471
4.48,0.1494,-0.5531,10.2266,10.6193,-7.8197,-3.8
4.5,0.0998,-0.5031,10.2431,5.5393,-10.6239,-0.7292
4.52,0.072,-0.5121,10.1524,6.8115,-9.4308,-2.7811
4.54,0.123,-0.5265,9.9719,3.3511,-7.3119,-3.7618
4.56,0.0289,-0.5309,9.9992,5.172,-10.7586,-3.536
4.58,0.0695,-0.6407,9.7019,3.462,-11.7533,-4.054
4.6,0.1202,-0.5724,9.8541,3.9519,-8.6799,-4.2144
4.62,-0.1554,-0.52,10.0033,-0.9384,-8.2373,-4.7332
4.64,-0.0537,-0.6827,10.0,-4.1376,-6.3935,-3.7988
4.66,-0.1791,-0.6778,10.1596,-3.7177,-7.9388,-4.74
4.68,-0.2537,-0.7059,10.1514,-8.7042,-5.4701,-3.391
4.7,-0.2011,-0.6944,10.2445,-8.4889,-7.9745,-4.4511
4.72,-0.1967,-0.6708,10.2775,-6.3552,-8.3058,-0.4573
4.74,-0.2244,-0.8498,10.3344,-7.1464,-8.1936,-3.4612
4.76,-0.216,-0.7052,10.4309,-15.1513,-10.1363,-0.1295
4.78,-0.1702,-0.7854,10.3756,-12.8076,-7.4388,-2.1562
4.8,-0.1907,-0.6964,10.3785,-11.5989,-11.0126,0.6451
4.82,-0.1479,-0.7431,10.3301,-11.6222,-8.0801,3.734
4.84,-0.2883,-0.6589,10.3642,-15.6162,-5.0432,0.5117
4.86,-0.1864,-0.5077,10.2718,-12.0679,-9.6161,1.3621
4.88,-0.2656,-0.5797,10.2189,-5.4282,-11.9599,0.0264
4.9,-0.1759,-0.7535,10.2099,-7.5574,-7.1218,4.1061
4.92,-0.0882,-0.6772,10.1557,-9.4932,-8.1812,3.3286
4.94,-0.0561,-0.7343,9.9809,-4.7242,-10.4081,4.4578
4.96,-0.1707,-0.5883,9.9725,-0.3375,-10.3298,2.0366
4.98,0.0005,-0.592,10.0623,1.6092,-7.3603,4.9379
5.0,0.0183,-0.614,9.7601,-1.0389,-8.2765,4.2317
5.02,0.0273,-0.5242,9.9563,-3.0051,-11.5854,2.8427
5.04,-0.0644,-0.5104,9.98,7.6295,-4.1414,3.0258
5.06,0.1691,-0.4133,9.9896,4.9123,-7.6371,1.0225
5.08,0.1193,-0.5389,10.0898,4.656,-5.7518,3.3626
5.1,0.1164,-0.4431,10.1183,10.728,-6.5085,3.0387
5.12,0.1465,-0.5474,10.2871,11.2805,-8.6934,1.5495
5.14,0.2609,-0.4484,10.178,8.5877,-6.5963,2.1863
5.16,0.2246,-0.3981,10.3214,13.8654,-7.5861,0.2288
5.18,0.2638,-0.297,10.3096,15.9868,-8.5763,1.3905
5.2,0.1554,-0.5609,10.3594,12.1686,-5.9977,1.236
5.22,0.1566,-0.3208,10.3913,8.455,-7.807,-0.7139
5.24,0.1734,-0.5406,10.3997,11.8669,-10.4581,-1.7058
5.26,0.2239,-0.3282,10.3245,12.5485,-8.6594,-2.4723
5.28,0.1436,-0.4199,10.3344,15.2107,-9.2818,-2.9461
5.3,0.0372,-0.3171,10.1578,9.9014,-10.1437,-3.3918
5.32,0.1688,-0.3528,10.2923,4.8549,-4.5412,-3.6611
5.34,0.1605,-0.4249,10.1411,2.2317,-11.7058,-1.9429
5.36,0.0308,-0.4444,10.063,4.7396,-9.5774,-1.6267
5.38,-0.0706,-0.5755,9.95,3.4223,-5.0446,-3.6571
5.4,0.0662,-0.5722,9.8212,1.7261,-11.2303,-1.5837
5.42,-0.0444,-0.54,9.8698,-1.727,-8.105,-0.9217
5.44,-0.0211,-0.6507,9.8317,3.7698,-5.3902,-3.1445
5.46,-0.1058,-0.4314,9.9719,-0.3876,-8.1928,-3.0891
5.48,-0.0859,-0.5256,9.978,-4.5274,-6.5163,-3.7846
5.5,-0.1702,-0.6491,10.1985,-9.135,-4.9065,-2.6356
5.52,-0.0786,-0.6208,10.1108,-11.7235,-9.5992,-2.2492
5.54,-0.1084,-0.567,10.2241,-8.8525,-8.3489,-1.9015
5.56,-0.2509,-0.7364,10.3651,-9.2708,-10.694,-3.0989
5.58,-0.0754,-0.719,10.3478,-11.3667,-9.1528,-2.5163
5.6,-0.1062,-0.6824,10.4455,-9.8452,-7.656,1.4715
5.62,-0.1478,-0.81,10.3838,-10.818,-9.6419,0.9645
5.64,-0.2061,-0.6678,10.2942,-11.9355,-8.4344,-0.2851
5.66,-0.234,-0.6473,10.3052,-8.3252,-4.6454,1.9799
5.68,-0.1619,-0.7119,10.3522,-7.8229,-5.7432,2.0099
5.7,-0.2813,-0.7774,10.2774,-10.6109,-10.2476,1.5876
5.72,-0.041,-0.6368,10.2048,-12.611,-5.6915,0.8285
5.74,-0.1063,-0.6312,10.2535,-5.116,-10.4192,5.3822
5.76,-0.1895,-0.7065,10.109,-4.6003,-11.6453,1.4869
5.78,-0.1231,-0.4439,10.0854,-5.4884,-7.5599,5.6691
5.8,-0.1621,-0.7505,9.9775,-3.2368,-9.558,3.1236
5.82,0.0828,-0.6407,9.9233,-1.3974,-10.7252,5.3937
5.84,0.0383,-0.5134,9.7654,0.9882,-6.6455,2.1556
5.86,0.1883,-0.616,9.9118,2.8931,-7.7713,5.1856
5.88,0.061,-0.4455,10.0845,4.1828,-8.277,3.2136
5.9,0.0963,-0.4438,10.0675,1.8543,-7.5303,1.1371
5.92,0.0737,-0.348,10.0957,8.4515,-6.1416,4.7491
5.94,0.1074,-0.4528,10.1849,8.7156,-7.9452,2.6976
5.96,0.1722,-0.4431,10.2895,9.9745,-6.206,3.1946
5.98,0.3282,-0.3433,10.3047,9.7456,-5.9582,0.4745
6.0,0.2086,-0.3257,10.3481,11.7473,-7.5618,0.5629
6.02,0.1949,-0.4581,10.3429,13.0355,-8.1351,1.9944
6.04,0.1451,-0.5527,10.2911,10.6007,-6.6901,-1.0053
6.06,0.3171,-0.3787,10.2827,11.1046,-8.8868,-0.8258
6.08,0.2879,-0.4717,10.4063,12.3686,-7.3159,-3.0968
6.1,0.0633,-0.4863,10.318,9.3063,-8.7119,-3.7319
6.12,0.1691,-0.4547,10.2511,7.7427,-7.8274,-3.8115
6.14,0.0455,-0.4447,10.1389,12.0628,-5.957,-3.8558
6.16,0.1339,-0.3874,10.0827,3.8243,-6.6851,-2.9648
6.18,0.1257,-0.6088,10.1153,5.3257,-11.0073,-2.007
6.2,0.1722,-0.4173,10.0168,3.5531,-7.0326,-3.611
6.22,0.1141,-0.5668,10.0015,0.8496,-6.2832,-4.2623
6.24,0.0025,-0.4839,9.8608,2.1245,-9.141,-5.7241
6.26,0.0104,-0.7237,9.8392,-0.3484,-9.5583,-4.1731
6.28,-0.1184,-0.7099,9.9911,0.0461,-10.8532,-4.5225
6.3,-0.0836,-0.7429,10.1663,-10.335,-5.4906,-5.4795
6.32,-0.1233,-0.5872,10.1041,-8.992,-5.9213,-6.465
6.34,-0.1494,-0.6425,10.2088,-4.0288,-5.4736,-2.4807
6.36,-0.2319,-0.5987,10.2064,-11.7244,-8.4478,-3.2692
6.38,-0.2126,-0.6733,10.2875,-13.5896,-8.4649,-0.833
6.4,-0.0745,-0.7818,10.3668,-8.8575,-9.927,-0.396
6.42,-0.21,-0.559,10.2765,-9.0213,-6.031,0.5405
6.44,-0.2247,-0.7968,10.2969,-7.6154,-7.7032,-0.3553
6.46,-0.0884,-0.6117,10.4001,-12.1416,-7.8814,-0.9674
6.48,-0.1836,-0.5932,10.3291,-12.4105,-5.8486,-0.7763
6.5,-0.0332,-0.7898,10.3298,-9.1837,-6.3475,0.9648
6.52,-0.1972,-0.6653,10.3246,-6.8719,-10.949,3.5327
6.54,-0.1498,-0.7825,10.3163,-10.0428,-6.48,0.1722
6.56,-0.1277,-0.7639,10.1716,-11.2476,-11.1306,2.4931
6.58,-0.121,-0.4999,10.0955,-7.5818,-5.1687,5.9845
6.6,-0.1954,-0.5781,9.9677,-4.4432,-7.2585,2.863
6.62,-0.155,-0.6137,9.9728,-5.0765,-12.9069,5.4366
6.64,-0.0601,-0.6422,9.9029,-0.2793,-8.8153,3.8878
6.66,0.0005,-0.4037,10.0022,2.8648,-9.1081,5.4055
6.68,0.0609,-0.4868,9.8193,-0.9697,-6.3039,3.4088
6.7,0.1578,-0.479,9.9613,2.2776,-9.2797,3.5565
6.72,0.2041,-0.4396,10.0024,5.3919,-5.2345,4.1691
6.74,0.071,-0.51,10.0998,5.0445,-5.4273,1.9401
6.76,0.1648,-0.5001,10.1933,11.612,-10.0577,6.1271
6.78,0.0381,-0.5359,10.2494,7.5653,-8.8889,-0.9463
6.8,0.2058,-0.5264,10.1805,11.3038,-8.3633,0.9501
6.82,0.1874,-0.4133,10.4393,13.6682,-6.1696,2.495
6.84,0.1253,-0.5335,10.2215,9.9388,-9.5771,-1.2278
6.86,0.1272,-0.2626,10.4111,11.1286,-12.2527,-0.0649
6.88,0.2331,-0.4593,10.4379,12.6429,-7.8288,0.6654
6.9,0.2853,-0.5292,10.3175,11.3282,-7.9711,-0.5126
6.92,0.221,-0.2372,10.3069,6.3471,-8.201,-2.8811
6.94,0.141,-0.6062,10.2398,6.5594,-8.4414,-2.3121
6.96,0.1572,-0.5311,10.2231,8.449,-5.3612,-1.9149
6.98,0.1376,-0.3485,10.2305,10.299,-11.9752,-5.83
7.0,0.138,-0.4304,10.1997,5.6836,-5.2224,-4.0702
7.02,0.1749,-0.4753,10.0157,2.3723,-7.8444,-0.8184
7.04,0.0316,-0.4281,10.0488,6.0168,-8.4752,-6.8121
7.06,-0.1065,-0.4637,9.8249,2.6058,-9.7575,-5.2477
7.08,-0.0135,-0.4847,9.9024,-1.5043,-6.2473,-4.8525
7.1,-0.0532,-0.5115,9.9188,-2.6081,-6.37,-4.3761
7.12,-0.0515,-0.575,9.9483,-5.4264,-7.4146,-2.2692
7.14,-0.1906,-0.5746,9.9844,-6.9867,-9.3457,-4.3846
7.16,-0.1967,-0.4859,9.9484,-8.737,-11.0265,-2.9013
7.18,-0.1124,-0.6869,10.2289,-3.3823,-9.3453,-3.8565
7.2,-0.1519,-0.6941,10.2087,-9.7315,-4.2064,-1.8655
7.22,-0.0879,-0.7302,10.2328,-8.6839,-7.7048,-1.0271
7.24,-0.1053,-0.7882,10.3046,-9.0699,-7.874,-2.7145
7.26,-0.2401,-0.6282,10.3869,-9.0681,-9.4505,2.1291
7.28,-0.3356,-0.713,10.3604,-10.541,-7.2388,0.1221
7.3,-0.1453,-0.7097,10.344,-10.6866,-7.0895,0.293
7.32,-0.0997,-0.711,10.2872,-14.2708,-8.8708,1.2327
7.34,-0.2218,-0.7789,10.3789,-11.8279,-10.3952,3.018
7.36,-0.1323,-0.6898,10.2154,-8.8115,-9.6429,2.6454
7.38,-0.2394,-0.5408,10.2982,-5.395,-10.577,0.0625
7.4,-0.1678,-0.6908,10.2149,-9.4053,-10.6403,3.5994
7.42,-0.1064,-0.5512,10.1534,-7.6979,-7.1528,2.0948
7.44,-0.0935,-0.6247,10.115,0.4659,-5.8628,3.6042
7.46,-0.0037,-0.7375,9.9352,-3.489,-9.7831,4.4051
7.48,-0.0975,-0.5583,9.8952,-3.8328,-12.1468,2.8183
7.5,-0.0934,-0.3738,9.724,2.8125,-10.219,3.2696
7.52,0.0139,-0.538,9.8636,-2.8552,-8.9224,7.3669
7.54,0.1384,-0.5604,9.9498,3.6689,-10.2673,4.3812
7.56,0.1191,-0.6054,10.0641,2.7249,-6.0645,2.9121
7.58,0.1901,-0.4168,10.0804,7.0196,-11.2971,5.4968
7.6,0.206,-0.469,10.1657,6.0476,-4.4318,1.171
7.62,0.2263,-0.3718,10.2799,8.2075,-8.9634,3.4561
7.64,0.0487,-0.4448,10.3778,11.3351,-8.9525,-0.0413
7.66,0.2031,-0.4059,10.319,14.7317,-6.9365,-1.1767
7.68,0.2507,-0.4033,10.3032,13.8194,-8.7212,-0.4349
7.7,0.1455,-0.4336,10.2486,11.0013,-9.5598,1.4278
7.72,0.0543,-0.3983,10.2262,15.308,-11.2681,0.853
7.74,0.2054,-0.3631,10.4168,8.0972,-7.2565,-0.2568
7.76,0.2695,-0.3401,10.3095,13.5278,-4.5045,-1.9827
7.78,0.1409,-0.4453,10.3393,10.1888,-11.1312,-1.4432
7.8,0.1664,-0.3439,10.26,9.477,-12.2523,-2.0596
7.82,0.21,-0.602,10.0306,11.7334,-8.6882,-0.7507
7.84,0.2518,-0.5374,10.0898,5.6864,-8.486,-5.2476
7.86,0.004,-0.4242,10.0315,1.9957,-8.7929,-7.1274
7.88,0.0396,-0.5623,9.9921,-0.8959,-7.0055,-3.233
7.9,0.01,-0.5319,9.8432,7.4988,-8.2571,-4.0029
7.92,-0.095,-0.4915,9.8861,-5.2848,-6.0355,-3.2268
7.94,0.027,-0.5577,9.8182,-0.8405,-2.3591,-2.054
7.96,-0.0926,-0.6057,10.0084,-7.0308,-7.2101,-3.4205
7.98,-0.0152,-0.6507,10.0526,-4.6435,-7.0051,-5.0098
8.0,-0.0785,-0.5217,10.2061,-6.5983,-11.6704,-1.14
8.02,-0.061,-0.6545,10.2046,-7.6222,-10.7082,-1.1513
8.04,-0.1727,-0.5805,10.2495,-13.5959,-7.2316,-3.8023
8.06,-0.0104,-0.7154,10.2749,-5.4634,-4.4776,-1.844
8.08,-0.0561,-0.6196,10.4329,-17.3911,-8.5784,-1.1458
8.1,-0.2926,-0.6511,10.3269,-12.8849,-9.2008,1.3513
8.12,-0.1644,-0.7425,10.3593,-16.1444,-7.4037,-0.2585
8.14,-0.2133,-0.7289,10.2969,-12.9564,-6.3095,-1.5327
8.16,-0.1343,-0.7573,10.3359,-9.4774,-5.3559,2.5385
8.18,-0.2623,-0.7927,10.3047,-15.5658,-8.0987,1.1678
8.2,-0.1999,-0.7197,10.3479,-6.5647,-10.754,0.5402
8.22,-0.0496,-0.618,10.2633,-10.8586,-5.7594,5.1012
8.24,-0.2476,-0.57,10.2846,-8.7236,-7.9054,3.3899
8.26,-0.1125,-0.5961,10.1794,-4.1782,-9.4036,1.6365
8.28,-0.0411,-0.6608,9.9392,-6.9495,-6.1269,4.1331
8.3,0.0432,-0.588,9.9839,-6.3351,-5.5773,2.8317
8.32,-0.0148,-0.6115,9.852,-5.5222,-9.6887,3.0244
8.34,-0.026,-0.4402,9.8029,-0.215,-9.6261,4.7414
8.36,0.0718,-0.605,10.0327,1.3405,-6.8888,3.9294
8.38,0.1062,-0.4272,10.0908,2.1349,-12.2779,3.1751
8.4,0.0213,-0.5613,10.0093,6.1259,-10.282,5.2786
8.42,0.1496,-0.4757,10.1458,6.89,-6.0303,1.5881
8.44,0.0195,-0.4013,10.209,9.9694,-4.0131,4.0375
8.46,0.1086,-0.3802,10.3557,9.5892,-8.3149,3.3966
8.48,0.0237,-0.4052,10.2542,9.4986,-4.0123,4.3836
8.5,0.2685,-0.5562,10.3571,8.6126,-8.0125,1.1156
8.52,0.1166,-0.4134,10.4795,13.8446,-7.1569,-0.5106
8.54,0.3059,-0.3224,10.273,15.0071,-8.4332,-0.9363
8.56,0.1577,-0.4955,10.311,12.0677,-11.0561,-0.0345
8.58,0.0677,-0.4307,10.4442,11.2376,-12.7829,-1.8024
8.6,0.184,-0.458,10.375,9.4838,-6.0376,-0.1494
8.62,0.2647,-0.3432,10.3354,11.1717,-6.5502,-2.3276
8.64,0.1293,-0.3466,10.1337,8.0725,-5.1132,-2.2556
8.66,0.1223,-0.4927,10.2075,7.2014,-6.9348,-1.3063
8.68,0.1515,-0.4737,10.0229,4.5983,-7.5033,-4.4407
8.7,0.0105,-0.5438,10.0109,2.862,-11.5163,0.4278
8.72,0.0469,-0.4825,9.9207,3.8431,-10.3195,-3.1378
8.74,0.0541,-0.6324,9.7017,1.4769,-6.5691,-1.3605
8.76,-0.0656,-0.4916,9.8976,1.8981,-10.7997,-5.3654
8.78,0.0512,-0.5472,9.8542,-3.7228,-9.3463,-4.8849
8.8,-0.0479,-0.5923,10.0009,-10.353,-10.3303,-5.4318
8.82,-0.0942,-0.5284,10.0973,-12.8716,-8.7832,-5.5457
8.84,-0.1304,-0.5426,10.1192,-3.8048,-8.2371,-5.0076
8.86,-0.2237,-0.6277,10.2012,-8.4687,-5.8825,-3.234
8.88,-0.185,-0.5505,10.1683,-11.2548,-7.9593,-4.747
8.9,-0.1318,-0.6569,10.2417,-14.2111,-10.1652,-2.2111
8.92,-0.2731,-0.8258,10.4152,-15.6538,-7.9792,0.47
8.94,-0.2533,-0.7518,10.2934,-12.6242,-14.2796,-0.891
8.96,-0.1571,-0.7165,10.4001,-12.3518,-8.8175,1.988
8.98,-0.1847,-0.6596,10.2831,-13.899,-6.3171,-0.208
9.0,-0.184,-0.7934,10.3416,-11.6915,-9.0935,2.1509
9.02,-0.1605,-0.7843,10.2984,-14.6479,-8.9119,1.3362
9.04,-0.1565,-0.6252,10.2826,-8.0244,-6.4096,0.9016
9.06,-0.2104,-0.6557,10.1527,-11.8601,-7.5162,1.0425
9.08,-0.1536,-0.6744,10.1306,-7.623,-9.2437,2.2233
9.1,-0.035,-0.7941,10.0749,-5.9287,-8.283,2.3295
9.12,-0.0317,-0.5901,10.0109,-5.7485,-7.1046,3.966
9.14,-0.068,-0.5549,9.8515,-0.1065,-8.4917,5.039
9.16,0.1483,-0.58,9.854,3.4589,-10.7594,4.0943
9.18,0.2129,-0.4705,9.9737,1.9359,-7.4979,1.7579
9.2,0.1011,-0.2983,9.8602,2.54,-9.9862,5.2217
9.22,0.1515,-0.5942,10.0188,0.9938,-8.9261,0.5741
9.24,0.109,-0.5505,10.0158,4.2754,-5.7484,0.8808
9.26,0.1015,-0.4688,10.1171,7.1958,-7.0554,0.5293
9.28,0.0606,-0.2011,10.3157,11.5344,-6.4689,3.0056
9.3,0.1086,-0.2494,10.2986,9.4546,-8.2422,2.3368
9.32,0.1503,-0.1765,10.3828,11.234,-8.3259,2.2842
9.34,0.2563,-0.47,10.2105,9.9781,-9.8124,1.646
9.36,0.2254,-0.4304,10.4593,8.9453,-8.6313,1.2646
9.38,0.1499,-0.281,10.4111,9.1586,-6.2718,-3.291
9.4,0.1755,-0.4427,10.4157,10.8077,-9.0276,-3.1574
9.42,0.242,-0.3672,10.3707,8.6793,-5.6874,-1.8421
9.44,0.1329,-0.4439,10.3617,12.7988,-7.282,-3.5854
9.46,0.1178,-0.373,10.3068,10.7317,-7.9673,-2.9481
9.48,0.0233,-0.4793,10.078,8.0283,-5.4092,-0.8886
9.5,0.1089,-0.5218,10.0085,9.8071,-10.2183,-4.7068
9.52,0.0375,-0.3689,10.1356,4.1404,-6.6825,-2.9063
9.54,-0.037,-0.5351,9.9896,9.0785,-8.6574,-3.4388
9.56,0.0513,-0.3055,9.7968,6.5823,-9.1241,-4.3581
9.58,-0.0714,-0.6049,9.894,-1.5315,-7.0788,-4.2287
9.6,-0.0221,-0.6184,9.9205,-1.0809,-7.5913,-2.9071
9.62,-0.1244,-0.626,10.0051,-5.8454,-6.3045,-2.8201
9.64,-0.1511,-0.6714,10.0333,-6.5426,-6.6219,-2.5754
9.66,-0.1653,-0.6291,10.1043,-5.8025,-8.4332,-2.6026
9.68,-0.1355,-0.502,10.2227,-8.1583,-7.1955,-0.7183
9.7,-0.0801,-0.6305,10.2105,-11.4127,-6.2221,-3.1862
9.72,-0.202,-0.5895,10.3267,-4.669,-9.5005,-1.5619
9.74,-0.2563,-0.6811,10.3547,-13.0281,-7.3889,-0.3832
9.76,-0.2342,-0.6549,10.3887,-15.9749,-10.2304,0.6851
9.78,-0.2562,-0.7581,10.402,-8.4296,-9.6951,-2.383
9.8,-0.2186,-0.6746,10.383,-11.2009,-7.0394,1.047
9.82,-0.2818,-0.8436,10.2484,-13.6501,-9.2212,-1.0716
9.84,-0.1292,-0.7827,10.263,-8.0959,-7.3985,2.4423
9.86,-0.1932,-0.7073,10.2286,-10.2348,-3.9284,4.6497
9.88,-0.2385,-0.6839,10.2613,-10.682,-6.072,3.2429
9.9,-0.084,-0.7545,10.2691,-6.6943,-8.5675,2.9537
9.92,-0.1691,-0.6336,10.153,-5.6086,-9.6081,4.9188
9.94,0.0514,-0.6951,10.1685,-3.5372,-8.9325,4.8196
9.96,-0.047,-0.4874,9.7788,-6.8747,-7.7262,4.2274
9.98,0.0189,-0.4504,9.8476,-1.2683,-9.3486,1.3857
10.0,0.0685,-0.5104,9.8675,-7.0404,-10.2146,6.665
10.02,0.1765,-0.3953,9.7976,0.3256,-6.5859,1.704
10.04,0.0219,-0.5178,10.0424,0.4934,-6.789,5.1622
10.06,0.0729,-0.4018,10.1502,6.1178,-6.6717,5.4018
10.08,0.0814,-0.4223,10.1061,4.6996,-6.7182,2.3263
10.1,0.1997,-0.5181,10.1974,10.1705,-9.3382,0.2443
10.12,0.1826,-0.4942,10.1828,5.9026,-2.7898,2.2089
10.14,0.2547,-0.5206,10.2886,6.8932,-7.5258,2.0389
10.16,0.2189,-0.3825,10.3177,13.3871,-10.8188,0.3576
10.18,0.2588,-0.467,10.4326,11.2803,-9.2751,0.3666
10.2,0.2475,-0.3184,10.3797,16.1391,-6.5728,-0.5689
10.22,0.2153,-0.5256,10.3438,7.4022,-8.1792,0.6626
10.24,0.1838,-0.4239,10.4342,6.5223,-7.0235,-0.9177
10.26,0.2777,-0.3847,10.3003,7.2096,-7.6965,0.7466
10.28,0.1192,-0.396,10.2484,12.0597,-5.9418,-5.4657
10.3,0.1403,-0.3488,10.2181,10.1863,-6.7434,-0.5548
10.32,0.1008,-0.5603,10.27,5.0302,-9.1117,-4.5322
10.34,0.173,-0.5909,10.1658,6.3508,-6.0094,-2.2083
10.36,0.095,-0.5424,9.9465,-1.9113,-5.4595,-4.7142
10.38,0.1252,-0.523,9.9186,0.1413,-3.7509,-3.5402
10.4,0.0472,-0.5649,9.7934,1.1285,-8.3054,-3.7686
10.42,-0.0609,-0.5726,9.7836,-0.0986,-7.2111,-4.3086
10.44,-0.0988,-0.602,9.8412,-1.1644,-12.1604,-5.4678
10.46,-0.1454,-0.6886,10.0279,-1.4807,-8.5124,-0.8787
10.48,-0.1549,-0.7608,10.0933,-3.7642,-10.0867,-2.0963
10.5,-0.0747,-0.5886,10.1516,-6.2064,-9.6116,-1.9679
10.52,-0.1368,-0.8172,10.1775,-8.5607,-10.3353,-2.4338
10.54,-0.237,-0.7929,10.1806,-11.7722,-6.6163,-2.1326
10.56,-0.0553,-0.6574,10.3254,-8.001,-7.2433,-3.6879
10.58,-0.1616,-0.7006,10.3067,-12.8109,-9.1079,0.7092
10.6,-0.1977,-0.6759,10.3347,-9.2539,-3.9175,-0.3831
10.62,-0.0805,-0.8044,10.3444,-9.2456,-9.3529,0.0973
10.64,-0.1114,-0.6944,10.3292,-13.8737,-5.0714,0.6699
10.66,-0.1783,-0.6947,10.3179,-14.2999,-7.8726,1.5374
10.68,-0.288,-0.6582,10.2707,-9.8776,-8.0575,1.1773
10.7,-0.192,-0.6856,10.2073,-7.2254,-7.5981,-0.3103
10.72,-0.1006,-0.7233,10.1956,-4.6892,-7.9032,0.878
10.74,-0.1671,-0.6565,10.1904,-9.1172,-4.2676,2.2334
10.76,-0.1604,-0.7225,10.0825,-9.15,-10.881,2.6059
10.78,0.0237,-0.6249,10.0057,-6.024,-7.2556,2.2379
10.8,0.0626,-0.4688,9.964,-1.8555,-6.1943,5.9429
10.82,0.0473,-0.695,9.8045,-0.6916,-6.4515,3.5398
10.84,0.0308,-0.5156,9.8293,4.0327,-8.2636,4.7533
10.86,0.1294,-0.5839,9.9633,0.6881,-7.8666,1.9721
10.88,0.0113,-0.3524,10.0687,4.8851,-6.5262,2.4837
10.9,0.1644,-0.3844,10.1489,4.7693,-7.1981,4.7054
10.92,0.1586,-0.3285,10.2026,7.3476,-9.5865,2.6155
10.94,0.1392,-0.4994,10.1257,12.3902,-9.0032,1.957
10.96,0.2117,-0.3824,10.3307,12.731,-7.681,2.0627
10.98,0.1608,-0.4129,10.3905,14.5719,-6.859,2.1081
11.0,0.29,-0.4467,10.283,9.8656,-10.0151,1.4802
11.02,0.1948,-0.4454,10.3872,14.4697,-5.8265,-0.6114
11.04,0.157,-0.5578,10.2791,15.7874,-11.748,0.4189
11.06,0.2182,-0.3535,10.3291,10.5855,-6.938,-3.0541
11.08,0.2749,-0.4124,10.4151,6.1413,-9.2477,-1.8607
11.1,0.2928,-0.3528,10.3223,10.5132,-7.0999,-2.2929
11.12,0.308,-0.3083,10.2309,10.0008,-10.4206,-1.2644
11.14,0.2563,-0.3797,10.1915,11.1887,-10.1475,-2.1084
11.16,0.1196,-0.645,10.2307,10.9124,-10.609,-2.8617
11.18,0.1147,-0.6225,10.11,2.3552,-9.4143,-4.9209
11.2,0.0745,-0.4618,10.0929,2.5115,-8.5224,-3.3717
11.22,0.0707,-0.5086,9.9989,4.6299,-9.6901,-1.1646
11.24,0.0322,-0.5917,9.8258,3.422,-8.4949,-3.6887
11.26,0.1109,-0.6247,9.8769,-3.7806,-5.5698,-4.2063
11.28,0.0151,-0.5746,9.957,1.4469,-9.3431,-6.2377
11.3,-0.1504,-0.5884,10.0325,-4.1544,-4.2632,-2.6565
11.32,-0.0609,-0.6764,10.0103,-7.0021,-11.0611,-3.5424
11.34,-0.2015,-0.625,10.1325,-9.298,-4.802,-3.0463
11.36,-0.176,-0.619,10.2202,-9.0576,-8.1652,-1.856
11.38,-0.151,-0.487,10.1942,-6.3706,-6.4069,-4.313
11.4,-0.1256,-0.7821,10.3227,-11.8018,-10.926,-0.0008
11.42,-0.2617,-0.6338,10.3003,-12.768,-7.6964,-0.0622
11.44,-0.1543,-0.8087,10.3291,-10.0595,-6.2314,-2.1453
11.46,-0.2101,-0.6669,10.2778,-8.8495,-9.9412,-0.7829
11.48,-0.2183,-0.6749,10.5155,-10.9332,-7.8879,1.4087
11.5,-0.2196,-0.6643,10.2755,-8.6426,-8.2278,-1.6021
11.52,-0.3043,-0.7742,10.327,-8.5953,-9.5165,1.7974
11.54,-0.1928,-0.6954,10.2601,-9.0379,-6.3326,3.5943
11.56,-0.0942,-0.6348,10.234,-10.4125,-11.3095,3.9508
11.58,-0.1249,-0.5852,10.1733,-4.834,-4.8369,3.7136
11.6,-0.0645,-0.6222,10.2057,-5.0544,-8.5432,2.783
11.62,-0.0045,-0.5537,9.8822,-1.8202,-8.8056,3.9624
11.64,0.0694,-0.6586,10.0027,-2.4861,-9.912,3.9333
11.66,0.029,-0.498,9.9558,0.8016,-6.0386,6.2585
11.68,0.029,-0.4848,9.9427,2.052,-6.4544,2.5909
11.7,0.0802,-0.4595,10.0608,0.8795,-11.6256,3.8867
11.72,0.1082,-0.4568,10.0063,2.3959,-8.6911,4.1101
11.74,0.0283,-0.3981,10.2099,11.9343,-7.8116,3.2007
11.76,0.0496,-0.4166,10.1488,9.5717,-10.2189,2.7566
11.78,-0.0018,-0.408,10.2322,7.6601,-11.9679,2.2816
11.8,0.2982,-0.5359,10.2885,11.655,-6.1769,1.2487
11.82,0.1392,-0.467,10.3455,7.7764,-8.7255,2.0524
11.84,0.2162,-0.371,10.2978,10.5675,-5.2487,-0.1021
11.86,0.2957,-0.4547,10.4089,14.5319,-10.4622,-0.9286
11.88,0.1731,-0.5209,10.2911,10.1691,-7.6411,-1.1792
11.9,0.223,-0.3721,10.2071,9.2937,-3.382,-0.4525
11.92,-0.0374,-0.2874,10.4113,10.5326,-11.0803,-2.4514
11.94,0.1716,-0.3477,10.4015,11.9395,-9.8447,-3.3321
11.96,0.1505,-0.3961,10.2144,11.0191,-7.9206,-3.4052
11.98,0.0988,-0.4685,10.2104,6.7718,-6.2395,-3.2158
12.0,0.1363,-0.4718,10.1001,7.7361,-8.4512,-2.6831
12.02,0.097,-0.6311,10.1022,6.7399,-4.9086,-0.7772
12.04,0.1583,-0.4218,10.0548,1.4986,-9.2561,-5.0168
12.06,0.0354,-0.5483,9.9939,1.3503,-6.239,-4.6499
12.08,0.0229,-0.6031,9.7532,4.101,-7.7073,-4.2677
12.1,-0.0182,-0.6081,9.8663,-2.3612,-10.2083,-6.5115
12.12,-0.0605,-0.6284,9.9919,-5.1419,-8.9086,-4.3113
12.14,0.0261,-0.4597,10.2659,-5.0571,-11.4572,-6.9312
12.16,-0.2253,-0.6821,10.0282,-7.0594,-9.6143,-2.1413
12.18,-0.1409,-0.6431,10.2067,-10.1135,-4.6807,-3.2109
12.2,-0.1502,-0.6798,10.1997,-12.5858,-9.2691,-2.7528
12.22,-0.2333,-0.7256,10.3368,-13.0601,-4.9844,-3.3335
12.24,-0.1123,-0.6013,10.3251,-14.0157,-8.7549,-1.8066
12.26,-0.2121,-0.8441,10.3732,-13.0573,-6.3062,-1.1287
12.28,-0.1587,-0.7197,10.4143,-12.1313,-6.2039,0.4243
12.3,-0.3074,-0.6434,10.4466,-10.9291,-5.7852,-2.8425
12.32,-0.1002,-0.5507,10.2507,-11.1818,-7.6865,1.9863
12.34,-0.1175,-0.7606,10.2847,-10.2971,-8.8344,1.1025
12.36,-0.0924,-0.6114,10.2551,-8.3874,-9.3259,5.2337
12.38,-0.1972,-0.7829,10.3788,-12.7246,-8.777,4.0616
12.4,-0.1503,-0.797,10.108,-6.1068,-10.4175,-0.2337
12.42,-0.0941,-0.7076,10.0618,-7.6309,-7.2121,2.5383
12.44,-0.1469,-0.7883,10.0588,-6.2034,-7.8423,1.7363
12.46,-0.0878,-0.5513,9.9157,-4.2904,-8.7167,3.7919
12.48,-0.0228,-0.612,9.9156,-2.069,-10.0304,1.7697
12.5,-0.0137,-0.6188,9.8314,0.2625,-10.53,4.9398
12.52,0.0084,-0.5278,9.8602,0.7574,-12.5624,3.0346
12.54,0.0331,-0.5469,9.9645,0.8185,-9.7606,5.0464
12.56,0.1245,-0.4553,9.9643,2.4999,-6.3197,3.5219
12.58,0.1607,-0.6007,10.1158,3.4637,-7.7448,3.321
12.6,0.0471,-0.6092,10.2226,5.2853,-7.1612,1.578
12.62,0.1941,-0.3895,10.2311,13.1942,-4.9133,2.6769
12.64,0.1552,-0.4401,10.177,8.6137,-8.265,0.2923
12.66,0.1549,-0.5031,10.4605,11.8436,-7.0715,-0.4176
12.68,0.3068,-0.4191,10.3084,7.9208,-7.904,-1.7193
12.7,0.1828,-0.4503,10.334,12.5857,-6.8353,3.2031
12.72,0.1427,-0.5646,10.3206,10.6992,-10.1452,1.7869
12.74,0.1757,-0.432,10.3447,11.2855,-8.2659,1.5401
12.76,0.2142,-0.4434,10.371,14.9026,-5.6653,-0.5985
12.78,0.1317,-0.3777,10.3287,10.5774,-5.3877,-0.7599
12.8,0.1198,-0.2285,10.1792,9.3174,-4.5746,-1.9883
12.82,0.042,-0.3607,10.192,6.9646,-6.6384,-0.6273
12.84,0.1703,-0.4722,10.0574,3.7755,-12.7216,-6.2645
12.86,0.0227,-0.5533,10.0844,2.1545,-9.3324,-2.8765
12.88,0.0541,-0.4902,10.04,1.3191,-6.9975,-5.7192
12.9,0.008,-0.4493,9.9401,-1.6144,-5.2354,-4.998
12.92,-0.1107,-0.4472,9.8718,-0.9978,-7.3046,-2.5252
12.94,0.0274,-0.5109,9.9083,-1.7907,-6.35,-3.3235
12.96,-0.0675,-0.5878,10.0201,-0.5088,-6.041,-2.166
12.98,-0.0993,-0.5339,10.0233,-5.2866,-8.1276,-2.3143
13.0,-0.0472,-0.6267,10.1233,-4.3972,-9.2027,-5.5223
13.02,-0.0297,-0.6357,10.2105,-6.3219,-5.7497,-1.6088
13.04,-0.0871,-0.6816,10.2346,-9.1108,-7.3119,-1.5845
13.06,-0.1553,-0.7301,10.2675,-14.1126,-5.1509,-2.783
13.08,-0.2591,-0.7916,10.3877,-10.0534,-9.2704,1.0062
13.1,-0.1692,-0.7571,10.3364,-12.3919,-5.6819,-0.0305
13.12,-0.3365,-0.8188,10.3447,-10.1231,-6.9829,-2.7927
13.14,-0.1368,-0.7438,10.3773,-11.3082,-7.4457,-0.6634
13.16,-0.2724,-0.7254,10.3129,-16.153,-8.09,-0.2234
13.18,-0.1012,-0.8363,10.2698,-10.3744,-8.2937,2.4898
13.2,-0.1371,-0.6616,10.334,-11.5116,-6.0834,2.0707
13.22,-0.1446,-0.5809,10.175,-9.0001,-7.5801,0.4949
13.24,-0.0937,-0.5633,10.2966,-3.8272,-7.871,2.4603
13.26,-0.0737,-0.602,10.0953,-6.1475,-8.1172,4.838
13.28,-0.0063,-0.688,10.0024,-2.9089,-8.2813,3.9319
13.3,-0.0269,-0.6058,9.9992,-3.3009,-10.9872,1.807
13.32,-0.0037,-0.5352,9.7423,-3.2362,-5.8423,3.6072
13.34,0.0544,-0.4802,9.8721,-1.0136,-5.8031,3.4486
13.36,0.017,-0.5214,9.9851,3.71,-5.4258,6.0997
13.38,0.172,-0.4595,9.8856,5.8365,-7.2499,1.8052
13.4,0.026,-0.4864,10.19,4.9841,-12.1079,0.9745
13.42,0.2056,-0.5168,10.2512,7.3033,-9.401,2.2418
13.44,0.1068,-0.4163,10.1579,9.6208,-6.8234,3.5004
13.46,0.217,-0.5181,10.3909,6.2801,-5.0594,2.5077
13.48,0.0227,-0.4906,10.2492,7.6188,-9.3412,0.8485
13.5,0.2364,-0.3125,10.2822,9.8356,-6.5795,2.1965
13.52,0.2909,-0.3875,10.4292,10.4944,-7.342,0.1597
13.54,0.314,-0.5974,10.3717,15.8418,-7.2685,-1.1933
13.56,0.2343,-0.443,10.4063,11.9519,-7.0314,-0.2784
13.58,0.2139,-0.5964,10.3962,12.4242,-8.5459,-1.9588
13.6,0.2238,-0.521,10.3946,10.3333,-6.318,-2.3921
13.62,0.2024,-0.3406,10.2909,10.271,-9.6011,-3.0958
13.64,0.1772,-0.3982,10.2533,6.9315,-7.1543,-5.9039
13.66,0.0876,-0.4864,10.1061,6.6087,-8.6384,-2.4876
13.68,0.1319,-0.51,10.0968,7.8299,-9.4303,-4.1355
13.7,0.0621,-0.7238,9.9488,6.7849,-9.8553,-2.1463
13.72,0.045,-0.3401,9.9239,6.4132,-5.7436,-5.9335
13.74,-0.1096,-0.5071,9.7547,-3.3628,-9.8953,-2.7057
13.76,0.0314,-0.4631,9.893,-0.3443,-9.1052,-7.4181
13.78,-0.0912,-0.7419,9.7365,-0.4441,-12.0222,-4.8676
13.8,-0.0641,-0.6285,9.9848,-2.9844,-8.3971,-3.3321
13.82,-0.1586,-0.6901,10.1523,-4.6713,-8.5286,-2.0432
13.84,-0.0905,-0.7763,10.1815,-10.9891,-7.7501,0.2087
13.86,-0.2278,-0.7354,10.1408,-12.9789,-4.3656,-3.7174
13.88,-0.1438,-0.6588,10.2368,-10.3853,-9.8453,-1.564
13.9,-0.1991,-0.5365,10.4489,-13.8278,-6.8898,-2.7696
13.92,-0.1574,-0.6783,10.3132,-10.8172,-8.8838,-1.728
13.94,-0.0989,-0.7586,10.3939,-13.3595,-7.0758,-0.0049
13.96,-0.243,-0.715,10.5107,-14.2425,-9.8973,-0.2348
13.98,-0.2179,-0.6284,10.3401,-11.8687,-7.9188,-0.1546
14.0,-0.2276,-0.5419,10.3164,-10.5819,-7.7097,2.0644
14.02,-0.1667,-0.8796,10.2924,-10.2431,-9.3835,1.9756
14.04,-0.1732,-0.7445,10.3203,-6.2443,-8.6646,3.8
14.06,-0.2417,-0.6447,10.1786,-6.6051,-7.0751,2.2892
14.08,-0.1114,-0.5576,10.0991,-7.2219,-9.0755,1.0845
14.1,0.0095,-0.6174,10.0446,-3.3579,-6.6879,5.8948
14.12,-0.0221,-0.67,9.9792,-6.8545,-9.7225,5.1783
14.14,-0.1595,-0.5229,9.9069,0.6799,-8.9746,4.4006
14.16,-0.0306,-0.4297,9.8211,-0.9746,-7.4375,5.7878
14.18,-0.0596,-0.5717,9.9378,0.5956,-11.2841,4.344
14.2,-0.0928,-0.5266,9.9073,4.6203,-7.933,5.6486
14.22,-0.0376,-0.5554,10.1174,3.933,-8.6413,2.5903
14.24,0.1259,-0.3397,10.1069,7.1004,-9.9599,3.2293
14.26,0.1554,-0.5639,10.1878,13.7705,-8.616,3.8925
14.28,0.2547,-0.3166,10.2854,13.0004,-5.4005,5.0025
14.3,0.103,-0.3142,10.2589,10.3042,-10.5774,4.0544
14.32,0.3199,-0.3959,10.3325,12.3623,-7.4707,0.5198
14.34,0.1992,-0.3632,10.365,8.3133,-8.3819,0.311
14.36,0.2356,-0.3322,10.2397,12.8487,-5.9961,1.049
14.38,0.1527,-0.2626,10.3466,9.6109,-5.3016,0.9572
14.4,0.2283,-0.3481,10.3436,12.8709,-7.54,-0.4384
14.42,0.2384,-0.4523,10.3386,14.8854,-11.2341,0.733
14.44,0.1108,-0.43,10.3121,10.4028,-8.2308,-1.2038
14.46,0.1972,-0.4877,10.1587,11.3411,-8.0311,-4.6046
14.48,0.1889,-0.398,10.1162,7.4537,-8.8239,-0.9906
14.5,0.1209,-0.4585,10.0562,8.5528,-8.4328,-3.1987
14.52,0.1707,-0.6639,9.9918,4.5961,-11.4605,-2.8653
14.54,-0.0345,-0.4224,9.8744,2.3019,-10.2086,-4.922
14.56,-0.004,-0.5825,9.8864,4.236,-8.8137,-3.6844
14.58,-0.1202,-0.65,9.7397,-0.2274,-8.4413,-4.7635
14.6,-0.032,-0.6049,9.7919,-0.2702,-10.3742,-2.5906
14.62,-0.0164,-0.6507,9.9587,-3.6824,-8.6294,-3.5158
